#
# Results on Friday August 30 2019 18:01:18 UTC.
# USER AGENT: Mozilla/5.0 (Windows NT 10.0; Win64; x64) AppleWebKit/537.36 (KHTML, like Gecko) Chrome/76.0.3809.100 Safari/537.36
# Design number was non-random = 0
#
# Columns below this comment are as follows:
# 1. Time results were received.
# 2. MD5 hash of participant's IP address.
# 3. Controller name.
# 4. Item number.
# 5. Element number.
# 6. Type.
# 7. Group.
# 8. Field name.
# 9. Field value.
1567188079,a94ff3d7df4f50f12ab3cccaf036335c,Form,3,0,consent,NULL,,yes
1567188079,a94ff3d7df4f50f12ab3cccaf036335c,Form,3,0,consent,NULL,_REACTION_TIME_,3337
1567188079,a94ff3d7df4f50f12ab3cccaf036335c,Form,4,0,instructions,NULL,_REACTION_TIME_,1123
1567188079,a94ff3d7df4f50f12ab3cccaf036335c,Form,5,0,story,7,_REACTION_TIME_,10774
# Columns below this comment are as follows:
# 1. Time results were received.
# 2. MD5 hash of participant's IP address.
# 3. Controller name.
# 4. Item number.
# 5. Element number.
# 6. Type.
# 7. Group.
# 8. Question (NULL if none).
# 9. Answer.
# 10. Whether or not answer was correct (NULL if N/A).
# 11. Time taken to answer.
1567188079,a94ff3d7df4f50f12ab3cccaf036335c,Question,5,1,story,7,What does John think is in the box?,a bomb,1,2708
1567188079,a94ff3d7df4f50f12ab3cccaf036335c,Question,5,2,story,7,What was really in the box?,a pillow,0,1782
1567188079,a94ff3d7df4f50f12ab3cccaf036335c,Question,5,3,story,7,Was John right about that?,yes,0,3501
1567188079,a94ff3d7df4f50f12ab3cccaf036335c,Question,7,0,politics,NULL,How worried are you about taxpayer money being wasted?,very worried,NULL,2415
1567188079,a94ff3d7df4f50f12ab3cccaf036335c,Question,6,0,politics,NULL,How worried are you about bombs being sent to government officials?,very worried,NULL,3430
# Columns below this comment are as follows:
# 1. Time results were received.
# 2. MD5 hash of participant's IP address.
# 3. Controller name.
# 4. Item number.
# 5. Element number.
# 6. Type.
# 7. Group.
# 8. Field name.
# 9. Field value.
1567188079,a94ff3d7df4f50f12ab3cccaf036335c,Form,8,0,subj_info,NULL,year,1991
1567188079,a94ff3d7df4f50f12ab3cccaf036335c,Form,8,0,subj_info,NULL,language,English
1567188079,a94ff3d7df4f50f12ab3cccaf036335c,Form,8,0,subj_info,NULL,idturk,A3TIRLWM8AB3JY
1567188079,a94ff3d7df4f50f12ab3cccaf036335c,Form,8,0,subj_info,NULL,comment,
1567188079,a94ff3d7df4f50f12ab3cccaf036335c,Form,8,0,subj_info,NULL,sex,female
1567188079,a94ff3d7df4f50f12ab3cccaf036335c,Form,8,0,subj_info,NULL,politics,republican
1567188079,a94ff3d7df4f50f12ab3cccaf036335c,Form,8,0,subj_info,NULL,_REACTION_TIME_,13158
#
# Results on Friday August 30 2019 18:02:39 UTC.
# USER AGENT: Mozilla/5.0 (Windows NT 10.0; Win64; x64) AppleWebKit/537.36 (KHTML, like Gecko) Chrome/76.0.3809.100 Safari/537.36
# Design number was non-random = 1
#
# Columns below this comment are as follows:
# 1. Time results were received.
# 2. MD5 hash of participant's IP address.
# 3. Controller name.
# 4. Item number.
# 5. Element number.
# 6. Type.
# 7. Group.
# 8. Field name.
# 9. Field value.
1567188159,20e088b74eb4772da01df4fb74086e28,Form,3,0,consent,NULL,,yes
1567188159,20e088b74eb4772da01df4fb74086e28,Form,3,0,consent,NULL,_REACTION_TIME_,9003
1567188159,20e088b74eb4772da01df4fb74086e28,Form,4,0,instructions,NULL,_REACTION_TIME_,2984
1567188159,20e088b74eb4772da01df4fb74086e28,Form,5,0,story,7,_REACTION_TIME_,17128
# Columns below this comment are as follows:
# 1. Time results were received.
# 2. MD5 hash of participant's IP address.
# 3. Controller name.
# 4. Item number.
# 5. Element number.
# 6. Type.
# 7. Group.
# 8. Question (NULL if none).
# 9. Answer.
# 10. Whether or not answer was correct (NULL if N/A).
# 11. Time taken to answer.
1567188159,20e088b74eb4772da01df4fb74086e28,Question,5,1,story,7,What does John think is in the box?,a bomb,1,3091
1567188159,20e088b74eb4772da01df4fb74086e28,Question,5,2,story,7,What was really in the box?,a pillow,0,1603
1567188159,20e088b74eb4772da01df4fb74086e28,Question,5,3,story,7,Was John right about that?,no,1,3196
1567188159,20e088b74eb4772da01df4fb74086e28,Question,6,0,politics,NULL,How worried are you about bombs being sent to government officials?,not at all worried,NULL,3443
1567188159,20e088b74eb4772da01df4fb74086e28,Question,7,0,politics,NULL,How worried are you about taxpayer money being wasted?,a little worried,NULL,2733
# Columns below this comment are as follows:
# 1. Time results were received.
# 2. MD5 hash of participant's IP address.
# 3. Controller name.
# 4. Item number.
# 5. Element number.
# 6. Type.
# 7. Group.
# 8. Field name.
# 9. Field value.
1567188159,20e088b74eb4772da01df4fb74086e28,Form,8,0,subj_info,NULL,year,1975
1567188159,20e088b74eb4772da01df4fb74086e28,Form,8,0,subj_info,NULL,language,english
1567188159,20e088b74eb4772da01df4fb74086e28,Form,8,0,subj_info,NULL,idturk,A1LII4M7CS6C9I
1567188159,20e088b74eb4772da01df4fb74086e28,Form,8,0,subj_info,NULL,comment,
1567188159,20e088b74eb4772da01df4fb74086e28,Form,8,0,subj_info,NULL,sex,female
1567188159,20e088b74eb4772da01df4fb74086e28,Form,8,0,subj_info,NULL,politics,republican
1567188159,20e088b74eb4772da01df4fb74086e28,Form,8,0,subj_info,NULL,_REACTION_TIME_,26644
#
# Results on Friday August 30 2019 18:02:44 UTC.
# USER AGENT: Mozilla/5.0 (Windows NT 10.0; Win64; x64) AppleWebKit/537.36 (KHTML, like Gecko) Chrome/76.0.3809.100 Safari/537.36
# Design number was non-random = 1
#
# Columns below this comment are as follows:
# 1. Time results were received.
# 2. MD5 hash of participant's IP address.
# 3. Controller name.
# 4. Item number.
# 5. Element number.
# 6. Type.
# 7. Group.
# 8. Field name.
# 9. Field value.
1567188165,dfbdb64a922eb269b8920a3efb3f7ac4,Form,3,0,consent,NULL,,yes
1567188165,dfbdb64a922eb269b8920a3efb3f7ac4,Form,3,0,consent,NULL,_REACTION_TIME_,9266
1567188165,dfbdb64a922eb269b8920a3efb3f7ac4,Form,4,0,instructions,NULL,_REACTION_TIME_,1449
1567188165,dfbdb64a922eb269b8920a3efb3f7ac4,Form,5,0,story,7,_REACTION_TIME_,1562
# Columns below this comment are as follows:
# 1. Time results were received.
# 2. MD5 hash of participant's IP address.
# 3. Controller name.
# 4. Item number.
# 5. Element number.
# 6. Type.
# 7. Group.
# 8. Question (NULL if none).
# 9. Answer.
# 10. Whether or not answer was correct (NULL if N/A).
# 11. Time taken to answer.
1567188165,dfbdb64a922eb269b8920a3efb3f7ac4,Question,5,1,story,7,What does John think is in the box?,a bomb,1,3387
1567188165,dfbdb64a922eb269b8920a3efb3f7ac4,Question,5,2,story,7,What was really in the box?,a pillow,0,1424
1567188165,dfbdb64a922eb269b8920a3efb3f7ac4,Question,5,3,story,7,Was John right about that?,no,1,1668
1567188165,dfbdb64a922eb269b8920a3efb3f7ac4,Question,7,0,politics,NULL,How worried are you about taxpayer money being wasted?,a little worried,NULL,1226
1567188165,dfbdb64a922eb269b8920a3efb3f7ac4,Question,6,0,politics,NULL,How worried are you about bombs being sent to government officials?,a little worried,NULL,1468
# Columns below this comment are as follows:
# 1. Time results were received.
# 2. MD5 hash of participant's IP address.
# 3. Controller name.
# 4. Item number.
# 5. Element number.
# 6. Type.
# 7. Group.
# 8. Field name.
# 9. Field value.
1567188165,dfbdb64a922eb269b8920a3efb3f7ac4,Form,8,0,subj_info,NULL,year,1990
1567188165,dfbdb64a922eb269b8920a3efb3f7ac4,Form,8,0,subj_info,NULL,language,english
1567188165,dfbdb64a922eb269b8920a3efb3f7ac4,Form,8,0,subj_info,NULL,idturk,A38ICX1LQIPIMN
1567188165,dfbdb64a922eb269b8920a3efb3f7ac4,Form,8,0,subj_info,NULL,comment,
1567188165,dfbdb64a922eb269b8920a3efb3f7ac4,Form,8,0,subj_info,NULL,sex,female
1567188165,dfbdb64a922eb269b8920a3efb3f7ac4,Form,8,0,subj_info,NULL,politics,other
1567188165,dfbdb64a922eb269b8920a3efb3f7ac4,Form,8,0,subj_info,NULL,_REACTION_TIME_,12243
#
# Results on Friday August 30 2019 18:02:52 UTC.
# USER AGENT: Mozilla/5.0 (Macintosh; Intel Mac OS X 10_12_6) AppleWebKit/537.36 (KHTML, like Gecko) Chrome/76.0.3809.132 Safari/537.36
# Design number was non-random = 1
#
# Columns below this comment are as follows:
# 1. Time results were received.
# 2. MD5 hash of participant's IP address.
# 3. Controller name.
# 4. Item number.
# 5. Element number.
# 6. Type.
# 7. Group.
# 8. Field name.
# 9. Field value.
1567188172,bab901e3edf642eadf83db9c91846495,Form,3,0,consent,NULL,,yes
1567188172,bab901e3edf642eadf83db9c91846495,Form,3,0,consent,NULL,_REACTION_TIME_,11839
1567188172,bab901e3edf642eadf83db9c91846495,Form,4,0,instructions,NULL,_REACTION_TIME_,1131
1567188172,bab901e3edf642eadf83db9c91846495,Form,5,0,story,7,_REACTION_TIME_,16336
# Columns below this comment are as follows:
# 1. Time results were received.
# 2. MD5 hash of participant's IP address.
# 3. Controller name.
# 4. Item number.
# 5. Element number.
# 6. Type.
# 7. Group.
# 8. Question (NULL if none).
# 9. Answer.
# 10. Whether or not answer was correct (NULL if N/A).
# 11. Time taken to answer.
1567188172,bab901e3edf642eadf83db9c91846495,Question,5,1,story,7,What does John think is in the box?,a bomb,1,2221
1567188172,bab901e3edf642eadf83db9c91846495,Question,5,2,story,7,What was really in the box?,a pillow,0,1008
1567188172,bab901e3edf642eadf83db9c91846495,Question,5,3,story,7,Was John right about that?,no,1,1836
1567188172,bab901e3edf642eadf83db9c91846495,Question,6,0,politics,NULL,How worried are you about bombs being sent to government officials?,a little worried,NULL,4290
1567188172,bab901e3edf642eadf83db9c91846495,Question,7,0,politics,NULL,How worried are you about taxpayer money being wasted?,not at all worried,NULL,6095
# Columns below this comment are as follows:
# 1. Time results were received.
# 2. MD5 hash of participant's IP address.
# 3. Controller name.
# 4. Item number.
# 5. Element number.
# 6. Type.
# 7. Group.
# 8. Field name.
# 9. Field value.
1567188172,bab901e3edf642eadf83db9c91846495,Form,8,0,subj_info,NULL,year,1987
1567188172,bab901e3edf642eadf83db9c91846495,Form,8,0,subj_info,NULL,language,English
1567188172,bab901e3edf642eadf83db9c91846495,Form,8,0,subj_info,NULL,idturk,A2ZE2IPHK152KA
1567188172,bab901e3edf642eadf83db9c91846495,Form,8,0,subj_info,NULL,comment,Thank you!
1567188172,bab901e3edf642eadf83db9c91846495,Form,8,0,subj_info,NULL,sex,female
1567188172,bab901e3edf642eadf83db9c91846495,Form,8,0,subj_info,NULL,politics,other
1567188172,bab901e3edf642eadf83db9c91846495,Form,8,0,subj_info,NULL,_REACTION_TIME_,26568
#
# Results on Friday August 30 2019 18:03:02 UTC.
# USER AGENT: Mozilla/5.0 (Macintosh; Intel Mac OS X 10_9_5) AppleWebKit/537.36 (KHTML, like Gecko) Chrome/62.0.3202.94 Safari/537.36 OPR/49.0.2725.64
# Design number was non-random = 0
#
# Columns below this comment are as follows:
# 1. Time results were received.
# 2. MD5 hash of participant's IP address.
# 3. Controller name.
# 4. Item number.
# 5. Element number.
# 6. Type.
# 7. Group.
# 8. Field name.
# 9. Field value.
1567188183,7dd9b4d42cca9273ad05601550b23b33,Form,3,0,consent,NULL,,yes
1567188183,7dd9b4d42cca9273ad05601550b23b33,Form,3,0,consent,NULL,_REACTION_TIME_,47015
1567188183,7dd9b4d42cca9273ad05601550b23b33,Form,4,0,instructions,NULL,_REACTION_TIME_,12254
1567188183,7dd9b4d42cca9273ad05601550b23b33,Form,5,0,story,7,_REACTION_TIME_,34307
# Columns below this comment are as follows:
# 1. Time results were received.
# 2. MD5 hash of participant's IP address.
# 3. Controller name.
# 4. Item number.
# 5. Element number.
# 6. Type.
# 7. Group.
# 8. Question (NULL if none).
# 9. Answer.
# 10. Whether or not answer was correct (NULL if N/A).
# 11. Time taken to answer.
1567188183,7dd9b4d42cca9273ad05601550b23b33,Question,5,1,story,7,What does John think is in the box?,a bomb,1,3811
1567188183,7dd9b4d42cca9273ad05601550b23b33,Question,5,2,story,7,What was really in the box?,a pillow,0,1682
1567188183,7dd9b4d42cca9273ad05601550b23b33,Question,5,3,story,7,Was John right about that?,no,1,2773
1567188183,7dd9b4d42cca9273ad05601550b23b33,Question,7,0,politics,NULL,How worried are you about taxpayer money being wasted?,not at all worried,NULL,3854
1567188183,7dd9b4d42cca9273ad05601550b23b33,Question,6,0,politics,NULL,How worried are you about bombs being sent to government officials?,not at all worried,NULL,3308
# Columns below this comment are as follows:
# 1. Time results were received.
# 2. MD5 hash of participant's IP address.
# 3. Controller name.
# 4. Item number.
# 5. Element number.
# 6. Type.
# 7. Group.
# 8. Field name.
# 9. Field value.
1567188183,7dd9b4d42cca9273ad05601550b23b33,Form,8,0,subj_info,NULL,year,1992
1567188183,7dd9b4d42cca9273ad05601550b23b33,Form,8,0,subj_info,NULL,language,english
1567188183,7dd9b4d42cca9273ad05601550b23b33,Form,8,0,subj_info,NULL,idturk,A1M9DKI1CPKKTC
1567188183,7dd9b4d42cca9273ad05601550b23b33,Form,8,0,subj_info,NULL,comment,
1567188183,7dd9b4d42cca9273ad05601550b23b33,Form,8,0,subj_info,NULL,sex,female
1567188183,7dd9b4d42cca9273ad05601550b23b33,Form,8,0,subj_info,NULL,politics,republican
1567188183,7dd9b4d42cca9273ad05601550b23b33,Form,8,0,subj_info,NULL,_REACTION_TIME_,19579
#
# Results on Friday August 30 2019 18:03:24 UTC.
# USER AGENT: Mozilla/5.0 (Windows NT 10.0; Win64; x64) AppleWebKit/537.36 (KHTML, like Gecko) Chrome/76.0.3809.132 Safari/537.36
# Design number was non-random = 0
#
# Columns below this comment are as follows:
# 1. Time results were received.
# 2. MD5 hash of participant's IP address.
# 3. Controller name.
# 4. Item number.
# 5. Element number.
# 6. Type.
# 7. Group.
# 8. Field name.
# 9. Field value.
1567188205,c934d1fb796f2398cc7ee4c7816ec530,Form,3,0,consent,NULL,,yes
1567188205,c934d1fb796f2398cc7ee4c7816ec530,Form,3,0,consent,NULL,_REACTION_TIME_,9194
1567188205,c934d1fb796f2398cc7ee4c7816ec530,Form,4,0,instructions,NULL,_REACTION_TIME_,6214
1567188205,c934d1fb796f2398cc7ee4c7816ec530,Form,5,0,story,7,_REACTION_TIME_,68668
# Columns below this comment are as follows:
# 1. Time results were received.
# 2. MD5 hash of participant's IP address.
# 3. Controller name.
# 4. Item number.
# 5. Element number.
# 6. Type.
# 7. Group.
# 8. Question (NULL if none).
# 9. Answer.
# 10. Whether or not answer was correct (NULL if N/A).
# 11. Time taken to answer.
1567188205,c934d1fb796f2398cc7ee4c7816ec530,Question,5,1,story,7,What does John think is in the box?,a bomb,1,3146
1567188205,c934d1fb796f2398cc7ee4c7816ec530,Question,5,2,story,7,What was really in the box?,a pillow,0,2152
1567188205,c934d1fb796f2398cc7ee4c7816ec530,Question,5,3,story,7,Was John right about that?,no,1,3787
1567188205,c934d1fb796f2398cc7ee4c7816ec530,Question,7,0,politics,NULL,How worried are you about taxpayer money being wasted?,not at all worried,NULL,6131
1567188205,c934d1fb796f2398cc7ee4c7816ec530,Question,6,0,politics,NULL,How worried are you about bombs being sent to government officials?,a little worried,NULL,8469
# Columns below this comment are as follows:
# 1. Time results were received.
# 2. MD5 hash of participant's IP address.
# 3. Controller name.
# 4. Item number.
# 5. Element number.
# 6. Type.
# 7. Group.
# 8. Field name.
# 9. Field value.
1567188205,c934d1fb796f2398cc7ee4c7816ec530,Form,8,0,subj_info,NULL,year,1960
1567188205,c934d1fb796f2398cc7ee4c7816ec530,Form,8,0,subj_info,NULL,language,English
1567188205,c934d1fb796f2398cc7ee4c7816ec530,Form,8,0,subj_info,NULL,idturk,A2UJYLP86SD9S
1567188205,c934d1fb796f2398cc7ee4c7816ec530,Form,8,0,subj_info,NULL,comment,
1567188205,c934d1fb796f2398cc7ee4c7816ec530,Form,8,0,subj_info,NULL,sex,male
1567188205,c934d1fb796f2398cc7ee4c7816ec530,Form,8,0,subj_info,NULL,politics,other
1567188205,c934d1fb796f2398cc7ee4c7816ec530,Form,8,0,subj_info,NULL,_REACTION_TIME_,19364
#
# Results on Friday August 30 2019 18:04:03 UTC.
# USER AGENT: Mozilla/5.0 (Windows NT 10.0; Win64; x64) AppleWebKit/537.36 (KHTML, like Gecko) Chrome/76.0.3809.100 Safari/537.36
# Design number was non-random = 1
#
# Columns below this comment are as follows:
# 1. Time results were received.
# 2. MD5 hash of participant's IP address.
# 3. Controller name.
# 4. Item number.
# 5. Element number.
# 6. Type.
# 7. Group.
# 8. Field name.
# 9. Field value.
1567188243,a91fbc90906674a11fc1fec74d439b91,Form,3,0,consent,NULL,,yes
1567188243,a91fbc90906674a11fc1fec74d439b91,Form,3,0,consent,NULL,_REACTION_TIME_,6731
1567188243,a91fbc90906674a11fc1fec74d439b91,Form,4,0,instructions,NULL,_REACTION_TIME_,2805
1567188243,a91fbc90906674a11fc1fec74d439b91,Form,5,0,story,7,_REACTION_TIME_,10707
# Columns below this comment are as follows:
# 1. Time results were received.
# 2. MD5 hash of participant's IP address.
# 3. Controller name.
# 4. Item number.
# 5. Element number.
# 6. Type.
# 7. Group.
# 8. Question (NULL if none).
# 9. Answer.
# 10. Whether or not answer was correct (NULL if N/A).
# 11. Time taken to answer.
1567188243,a91fbc90906674a11fc1fec74d439b91,Question,5,1,story,7,What does John think is in the box?,a bomb,1,21069
1567188243,a91fbc90906674a11fc1fec74d439b91,Question,5,2,story,7,What was really in the box?,a pillow,0,16726
1567188243,a91fbc90906674a11fc1fec74d439b91,Question,5,3,story,7,Was John right about that?,no,1,4440
1567188243,a91fbc90906674a11fc1fec74d439b91,Question,7,0,politics,NULL,How worried are you about taxpayer money being wasted?,very worried,NULL,4419
1567188243,a91fbc90906674a11fc1fec74d439b91,Question,6,0,politics,NULL,How worried are you about bombs being sent to government officials?,a little worried,NULL,8247
# Columns below this comment are as follows:
# 1. Time results were received.
# 2. MD5 hash of participant's IP address.
# 3. Controller name.
# 4. Item number.
# 5. Element number.
# 6. Type.
# 7. Group.
# 8. Field name.
# 9. Field value.
1567188243,a91fbc90906674a11fc1fec74d439b91,Form,8,0,subj_info,NULL,year,1980
1567188243,a91fbc90906674a11fc1fec74d439b91,Form,8,0,subj_info,NULL,language,English
1567188243,a91fbc90906674a11fc1fec74d439b91,Form,8,0,subj_info,NULL,idturk,ANJJQV9EY4QQ4
1567188243,a91fbc90906674a11fc1fec74d439b91,Form,8,0,subj_info,NULL,comment,
1567188243,a91fbc90906674a11fc1fec74d439b91,Form,8,0,subj_info,NULL,sex,female
1567188243,a91fbc90906674a11fc1fec74d439b91,Form,8,0,subj_info,NULL,politics,other
1567188243,a91fbc90906674a11fc1fec74d439b91,Form,8,0,subj_info,NULL,_REACTION_TIME_,26207
#
# Results on Friday August 30 2019 18:04:14 UTC.
# USER AGENT: Mozilla/5.0 (Windows NT 10.0; Win64; x64) AppleWebKit/537.36 (KHTML, like Gecko) Chrome/76.0.3809.132 Safari/537.36
# Design number was non-random = 1
#
# Columns below this comment are as follows:
# 1. Time results were received.
# 2. MD5 hash of participant's IP address.
# 3. Controller name.
# 4. Item number.
# 5. Element number.
# 6. Type.
# 7. Group.
# 8. Field name.
# 9. Field value.
1567188255,51b742b37523ecc05f61044c51778df2,Form,3,0,consent,NULL,,yes
1567188255,51b742b37523ecc05f61044c51778df2,Form,3,0,consent,NULL,_REACTION_TIME_,16812
1567188255,51b742b37523ecc05f61044c51778df2,Form,4,0,instructions,NULL,_REACTION_TIME_,20628
1567188255,51b742b37523ecc05f61044c51778df2,Form,5,0,story,7,_REACTION_TIME_,18006
# Columns below this comment are as follows:
# 1. Time results were received.
# 2. MD5 hash of participant's IP address.
# 3. Controller name.
# 4. Item number.
# 5. Element number.
# 6. Type.
# 7. Group.
# 8. Question (NULL if none).
# 9. Answer.
# 10. Whether or not answer was correct (NULL if N/A).
# 11. Time taken to answer.
1567188255,51b742b37523ecc05f61044c51778df2,Question,5,1,story,7,What does John think is in the box?,a bomb,1,3250
1567188255,51b742b37523ecc05f61044c51778df2,Question,5,2,story,7,What was really in the box?,a pillow,0,1472
1567188255,51b742b37523ecc05f61044c51778df2,Question,5,3,story,7,Was John right about that?,no,1,4033
1567188255,51b742b37523ecc05f61044c51778df2,Question,7,0,politics,NULL,How worried are you about taxpayer money being wasted?,very worried,NULL,4727
1567188255,51b742b37523ecc05f61044c51778df2,Question,6,0,politics,NULL,How worried are you about bombs being sent to government officials?,a little worried,NULL,3829
# Columns below this comment are as follows:
# 1. Time results were received.
# 2. MD5 hash of participant's IP address.
# 3. Controller name.
# 4. Item number.
# 5. Element number.
# 6. Type.
# 7. Group.
# 8. Field name.
# 9. Field value.
1567188255,51b742b37523ecc05f61044c51778df2,Form,8,0,subj_info,NULL,year,1994
1567188255,51b742b37523ecc05f61044c51778df2,Form,8,0,subj_info,NULL,language,English
1567188255,51b742b37523ecc05f61044c51778df2,Form,8,0,subj_info,NULL,idturk,A3RHJEMZ4EGY2U
1567188255,51b742b37523ecc05f61044c51778df2,Form,8,0,subj_info,NULL,comment,The box would have some sort of label stating where it was from.
1567188255,51b742b37523ecc05f61044c51778df2,Form,8,0,subj_info,NULL,sex,female
1567188255,51b742b37523ecc05f61044c51778df2,Form,8,0,subj_info,NULL,politics,democrat
1567188255,51b742b37523ecc05f61044c51778df2,Form,8,0,subj_info,NULL,_REACTION_TIME_,67310
#
# Results on Friday August 30 2019 18:04:26 UTC.
# USER AGENT: Mozilla/5.0 (Windows NT 10.0; Win64; x64) AppleWebKit/537.36 (KHTML, like Gecko) Chrome/76.0.3809.132 Safari/537.36
# Design number was non-random = 5
#
# Columns below this comment are as follows:
# 1. Time results were received.
# 2. MD5 hash of participant's IP address.
# 3. Controller name.
# 4. Item number.
# 5. Element number.
# 6. Type.
# 7. Group.
# 8. Field name.
# 9. Field value.
1567188267,875a2db64dd5966b01bf330c9fe7be5e,Form,3,0,consent,NULL,,yes
1567188267,875a2db64dd5966b01bf330c9fe7be5e,Form,3,0,consent,NULL,_REACTION_TIME_,16575
1567188267,875a2db64dd5966b01bf330c9fe7be5e,Form,4,0,instructions,NULL,_REACTION_TIME_,1979
1567188267,875a2db64dd5966b01bf330c9fe7be5e,Form,5,0,story,7,_REACTION_TIME_,34183
# Columns below this comment are as follows:
# 1. Time results were received.
# 2. MD5 hash of participant's IP address.
# 3. Controller name.
# 4. Item number.
# 5. Element number.
# 6. Type.
# 7. Group.
# 8. Question (NULL if none).
# 9. Answer.
# 10. Whether or not answer was correct (NULL if N/A).
# 11. Time taken to answer.
1567188267,875a2db64dd5966b01bf330c9fe7be5e,Question,5,1,story,7,What does John think is in the box?,a bomb,1,1840
1567188267,875a2db64dd5966b01bf330c9fe7be5e,Question,5,2,story,7,What was really in the box?,a pillow,0,1143
1567188267,875a2db64dd5966b01bf330c9fe7be5e,Question,5,3,story,7,Was John right about that?,no,1,2208
1567188267,875a2db64dd5966b01bf330c9fe7be5e,Question,7,0,politics,NULL,How worried are you about taxpayer money being wasted?,not at all worried,NULL,2759
1567188267,875a2db64dd5966b01bf330c9fe7be5e,Question,6,0,politics,NULL,How worried are you about bombs being sent to government officials?,a little worried,NULL,2482
# Columns below this comment are as follows:
# 1. Time results were received.
# 2. MD5 hash of participant's IP address.
# 3. Controller name.
# 4. Item number.
# 5. Element number.
# 6. Type.
# 7. Group.
# 8. Field name.
# 9. Field value.
1567188267,875a2db64dd5966b01bf330c9fe7be5e,Form,8,0,subj_info,NULL,year,1982
1567188267,875a2db64dd5966b01bf330c9fe7be5e,Form,8,0,subj_info,NULL,language,English
1567188267,875a2db64dd5966b01bf330c9fe7be5e,Form,8,0,subj_info,NULL,idturk,A3G7NGNCTTW422
1567188267,875a2db64dd5966b01bf330c9fe7be5e,Form,8,0,subj_info,NULL,comment,
1567188267,875a2db64dd5966b01bf330c9fe7be5e,Form,8,0,subj_info,NULL,sex,male
1567188267,875a2db64dd5966b01bf330c9fe7be5e,Form,8,0,subj_info,NULL,politics,other
1567188267,875a2db64dd5966b01bf330c9fe7be5e,Form,8,0,subj_info,NULL,_REACTION_TIME_,16974
#
# Results on Friday August 30 2019 18:04:34 UTC.
# USER AGENT: Mozilla/5.0 (Windows NT 10.0; Win64; x64; rv:68.0) Gecko/20100101 Firefox/68.0
# Design number was non-random = 6
#
# Columns below this comment are as follows:
# 1. Time results were received.
# 2. MD5 hash of participant's IP address.
# 3. Controller name.
# 4. Item number.
# 5. Element number.
# 6. Type.
# 7. Group.
# 8. Field name.
# 9. Field value.
1567188275,dc8df560e6017d735b1a326ea7332533,Form,3,0,consent,NULL,,yes
1567188275,dc8df560e6017d735b1a326ea7332533,Form,3,0,consent,NULL,_REACTION_TIME_,8266
1567188275,dc8df560e6017d735b1a326ea7332533,Form,4,0,instructions,NULL,_REACTION_TIME_,1760
1567188275,dc8df560e6017d735b1a326ea7332533,Form,5,0,story,7,_REACTION_TIME_,10489
# Columns below this comment are as follows:
# 1. Time results were received.
# 2. MD5 hash of participant's IP address.
# 3. Controller name.
# 4. Item number.
# 5. Element number.
# 6. Type.
# 7. Group.
# 8. Question (NULL if none).
# 9. Answer.
# 10. Whether or not answer was correct (NULL if N/A).
# 11. Time taken to answer.
1567188275,dc8df560e6017d735b1a326ea7332533,Question,5,1,story,7,What does John think is in the box?,a bomb,1,1895
1567188275,dc8df560e6017d735b1a326ea7332533,Question,5,2,story,7,What was really in the box?,a pillow,0,1108
1567188275,dc8df560e6017d735b1a326ea7332533,Question,5,3,story,7,Was John right about that?,no,1,2355
1567188275,dc8df560e6017d735b1a326ea7332533,Question,7,0,politics,NULL,How worried are you about taxpayer money being wasted?,a little worried,NULL,3018
1567188275,dc8df560e6017d735b1a326ea7332533,Question,6,0,politics,NULL,How worried are you about bombs being sent to government officials?,a little worried,NULL,2505
# Columns below this comment are as follows:
# 1. Time results were received.
# 2. MD5 hash of participant's IP address.
# 3. Controller name.
# 4. Item number.
# 5. Element number.
# 6. Type.
# 7. Group.
# 8. Field name.
# 9. Field value.
1567188275,dc8df560e6017d735b1a326ea7332533,Form,8,0,subj_info,NULL,year,1992
1567188275,dc8df560e6017d735b1a326ea7332533,Form,8,0,subj_info,NULL,language,English
1567188275,dc8df560e6017d735b1a326ea7332533,Form,8,0,subj_info,NULL,idturk,A1VEXF7BDDZIMI
1567188275,dc8df560e6017d735b1a326ea7332533,Form,8,0,subj_info,NULL,comment,
1567188275,dc8df560e6017d735b1a326ea7332533,Form,8,0,subj_info,NULL,sex,female
1567188275,dc8df560e6017d735b1a326ea7332533,Form,8,0,subj_info,NULL,politics,democrat
1567188275,dc8df560e6017d735b1a326ea7332533,Form,8,0,subj_info,NULL,_REACTION_TIME_,16943
#
# Results on Friday August 30 2019 18:04:41 UTC.
# USER AGENT: Mozilla/5.0 (Macintosh; Intel Mac OS X 10_14_0) AppleWebKit/537.36 (KHTML, like Gecko) Chrome/75.0.3770.142 Safari/537.36
# Design number was non-random = 5
#
# Columns below this comment are as follows:
# 1. Time results were received.
# 2. MD5 hash of participant's IP address.
# 3. Controller name.
# 4. Item number.
# 5. Element number.
# 6. Type.
# 7. Group.
# 8. Field name.
# 9. Field value.
1567188281,1abb9de68cd96a06060202b515320506,Form,3,0,consent,NULL,,yes
1567188281,1abb9de68cd96a06060202b515320506,Form,3,0,consent,NULL,_REACTION_TIME_,2756
1567188281,1abb9de68cd96a06060202b515320506,Form,4,0,instructions,NULL,_REACTION_TIME_,2758
1567188281,1abb9de68cd96a06060202b515320506,Form,5,0,story,7,_REACTION_TIME_,35666
# Columns below this comment are as follows:
# 1. Time results were received.
# 2. MD5 hash of participant's IP address.
# 3. Controller name.
# 4. Item number.
# 5. Element number.
# 6. Type.
# 7. Group.
# 8. Question (NULL if none).
# 9. Answer.
# 10. Whether or not answer was correct (NULL if N/A).
# 11. Time taken to answer.
1567188281,1abb9de68cd96a06060202b515320506,Question,5,1,story,7,What does John think is in the box?,a bomb,1,4574
1567188281,1abb9de68cd96a06060202b515320506,Question,5,2,story,7,What was really in the box?,a pillow,0,1878
1567188281,1abb9de68cd96a06060202b515320506,Question,5,3,story,7,Was John right about that?,no,1,2350
1567188281,1abb9de68cd96a06060202b515320506,Question,7,0,politics,NULL,How worried are you about taxpayer money being wasted?,very worried,NULL,6296
1567188281,1abb9de68cd96a06060202b515320506,Question,6,0,politics,NULL,How worried are you about bombs being sent to government officials?,a little worried,NULL,4145
# Columns below this comment are as follows:
# 1. Time results were received.
# 2. MD5 hash of participant's IP address.
# 3. Controller name.
# 4. Item number.
# 5. Element number.
# 6. Type.
# 7. Group.
# 8. Field name.
# 9. Field value.
1567188281,1abb9de68cd96a06060202b515320506,Form,8,0,subj_info,NULL,year,1989
1567188281,1abb9de68cd96a06060202b515320506,Form,8,0,subj_info,NULL,language,English
1567188281,1abb9de68cd96a06060202b515320506,Form,8,0,subj_info,NULL,idturk,AFP6UD3CFMDIC
1567188281,1abb9de68cd96a06060202b515320506,Form,8,0,subj_info,NULL,comment,
1567188281,1abb9de68cd96a06060202b515320506,Form,8,0,subj_info,NULL,sex,male
1567188281,1abb9de68cd96a06060202b515320506,Form,8,0,subj_info,NULL,politics,republican
1567188281,1abb9de68cd96a06060202b515320506,Form,8,0,subj_info,NULL,_REACTION_TIME_,18825
#
# Results on Friday August 30 2019 18:04:58 UTC.
# USER AGENT: Mozilla/5.0 (Windows NT 6.1; Win64; x64) AppleWebKit/537.36 (KHTML, like Gecko) Chrome/76.0.3809.100 Safari/537.36
# Design number was non-random = 6
#
# Columns below this comment are as follows:
# 1. Time results were received.
# 2. MD5 hash of participant's IP address.
# 3. Controller name.
# 4. Item number.
# 5. Element number.
# 6. Type.
# 7. Group.
# 8. Field name.
# 9. Field value.
1567188298,06d41900034856f64e3b892327ce3bb2,Form,3,0,consent,NULL,,yes
1567188298,06d41900034856f64e3b892327ce3bb2,Form,3,0,consent,NULL,_REACTION_TIME_,3158
1567188298,06d41900034856f64e3b892327ce3bb2,Form,4,0,instructions,NULL,_REACTION_TIME_,1449
1567188298,06d41900034856f64e3b892327ce3bb2,Form,5,0,story,7,_REACTION_TIME_,19350
# Columns below this comment are as follows:
# 1. Time results were received.
# 2. MD5 hash of participant's IP address.
# 3. Controller name.
# 4. Item number.
# 5. Element number.
# 6. Type.
# 7. Group.
# 8. Question (NULL if none).
# 9. Answer.
# 10. Whether or not answer was correct (NULL if N/A).
# 11. Time taken to answer.
1567188298,06d41900034856f64e3b892327ce3bb2,Question,5,1,story,7,What does John think is in the box?,a bomb,1,3651
1567188298,06d41900034856f64e3b892327ce3bb2,Question,5,2,story,7,What was really in the box?,a pillow,0,1949
1567188298,06d41900034856f64e3b892327ce3bb2,Question,5,3,story,7,Was John right about that?,no,1,2094
1567188298,06d41900034856f64e3b892327ce3bb2,Question,6,0,politics,NULL,How worried are you about bombs being sent to government officials?,not at all worried,NULL,3734
1567188298,06d41900034856f64e3b892327ce3bb2,Question,7,0,politics,NULL,How worried are you about taxpayer money being wasted?,not at all worried,NULL,2182
# Columns below this comment are as follows:
# 1. Time results were received.
# 2. MD5 hash of participant's IP address.
# 3. Controller name.
# 4. Item number.
# 5. Element number.
# 6. Type.
# 7. Group.
# 8. Field name.
# 9. Field value.
1567188298,06d41900034856f64e3b892327ce3bb2,Form,8,0,subj_info,NULL,year,1986
1567188298,06d41900034856f64e3b892327ce3bb2,Form,8,0,subj_info,NULL,language,english
1567188298,06d41900034856f64e3b892327ce3bb2,Form,8,0,subj_info,NULL,idturk,A14E0Y5HPALKZN
1567188298,06d41900034856f64e3b892327ce3bb2,Form,8,0,subj_info,NULL,comment,
1567188298,06d41900034856f64e3b892327ce3bb2,Form,8,0,subj_info,NULL,sex,female
1567188298,06d41900034856f64e3b892327ce3bb2,Form,8,0,subj_info,NULL,politics,democrat
1567188298,06d41900034856f64e3b892327ce3bb2,Form,8,0,subj_info,NULL,_REACTION_TIME_,17013
#
# Results on Friday August 30 2019 18:05:13 UTC.
# USER AGENT: Mozilla/5.0 (Macintosh; Intel Mac OS X 10_12_0) AppleWebKit/537.36 (KHTML, like Gecko) Chrome/76.0.3809.100 Safari/537.36
# Design number was non-random = 8
#
# Columns below this comment are as follows:
# 1. Time results were received.
# 2. MD5 hash of participant's IP address.
# 3. Controller name.
# 4. Item number.
# 5. Element number.
# 6. Type.
# 7. Group.
# 8. Field name.
# 9. Field value.
1567188314,7c65b21b8bcafa4eaf94f907207a7fb8,Form,3,0,consent,NULL,,yes
1567188314,7c65b21b8bcafa4eaf94f907207a7fb8,Form,3,0,consent,NULL,_REACTION_TIME_,3909
1567188314,7c65b21b8bcafa4eaf94f907207a7fb8,Form,4,0,instructions,NULL,_REACTION_TIME_,1454
1567188314,7c65b21b8bcafa4eaf94f907207a7fb8,Form,5,0,story,7,_REACTION_TIME_,18830
# Columns below this comment are as follows:
# 1. Time results were received.
# 2. MD5 hash of participant's IP address.
# 3. Controller name.
# 4. Item number.
# 5. Element number.
# 6. Type.
# 7. Group.
# 8. Question (NULL if none).
# 9. Answer.
# 10. Whether or not answer was correct (NULL if N/A).
# 11. Time taken to answer.
1567188314,7c65b21b8bcafa4eaf94f907207a7fb8,Question,5,1,story,7,What does John think is in the box?,a bomb,1,2742
1567188314,7c65b21b8bcafa4eaf94f907207a7fb8,Question,5,2,story,7,What was really in the box?,a pillow,0,1281
1567188314,7c65b21b8bcafa4eaf94f907207a7fb8,Question,5,3,story,7,Was John right about that?,no,1,2368
1567188314,7c65b21b8bcafa4eaf94f907207a7fb8,Question,6,0,politics,NULL,How worried are you about bombs being sent to government officials?,not at all worried,NULL,2764
1567188314,7c65b21b8bcafa4eaf94f907207a7fb8,Question,7,0,politics,NULL,How worried are you about taxpayer money being wasted?,very worried,NULL,2641
# Columns below this comment are as follows:
# 1. Time results were received.
# 2. MD5 hash of participant's IP address.
# 3. Controller name.
# 4. Item number.
# 5. Element number.
# 6. Type.
# 7. Group.
# 8. Field name.
# 9. Field value.
1567188314,7c65b21b8bcafa4eaf94f907207a7fb8,Form,8,0,subj_info,NULL,year,1990
1567188314,7c65b21b8bcafa4eaf94f907207a7fb8,Form,8,0,subj_info,NULL,language,english
1567188314,7c65b21b8bcafa4eaf94f907207a7fb8,Form,8,0,subj_info,NULL,idturk,A15NT1E8X5MFYP
1567188314,7c65b21b8bcafa4eaf94f907207a7fb8,Form,8,0,subj_info,NULL,comment,
1567188314,7c65b21b8bcafa4eaf94f907207a7fb8,Form,8,0,subj_info,NULL,sex,female
1567188314,7c65b21b8bcafa4eaf94f907207a7fb8,Form,8,0,subj_info,NULL,politics,democrat
1567188314,7c65b21b8bcafa4eaf94f907207a7fb8,Form,8,0,subj_info,NULL,_REACTION_TIME_,18186
#
# Results on Friday August 30 2019 18:06:31 UTC.
# USER AGENT: Mozilla/5.0 (Windows NT 10.0; Win64; x64) AppleWebKit/537.36 (KHTML, like Gecko) Chrome/76.0.3809.132 Safari/537.36
# Design number was non-random = 13
#
# Columns below this comment are as follows:
# 1. Time results were received.
# 2. MD5 hash of participant's IP address.
# 3. Controller name.
# 4. Item number.
# 5. Element number.
# 6. Type.
# 7. Group.
# 8. Field name.
# 9. Field value.
1567188392,1360708c969976a3853fa38b3bc9c9de,Form,3,0,consent,NULL,,yes
1567188392,1360708c969976a3853fa38b3bc9c9de,Form,3,0,consent,NULL,_REACTION_TIME_,17129
1567188392,1360708c969976a3853fa38b3bc9c9de,Form,4,0,instructions,NULL,_REACTION_TIME_,3511
1567188392,1360708c969976a3853fa38b3bc9c9de,Form,5,0,story,7,_REACTION_TIME_,20651
# Columns below this comment are as follows:
# 1. Time results were received.
# 2. MD5 hash of participant's IP address.
# 3. Controller name.
# 4. Item number.
# 5. Element number.
# 6. Type.
# 7. Group.
# 8. Question (NULL if none).
# 9. Answer.
# 10. Whether or not answer was correct (NULL if N/A).
# 11. Time taken to answer.
1567188392,1360708c969976a3853fa38b3bc9c9de,Question,5,1,story,7,What does John think is in the box?,a bomb,1,2838
1567188392,1360708c969976a3853fa38b3bc9c9de,Question,5,2,story,7,What was really in the box?,a bomb,1,2839
1567188392,1360708c969976a3853fa38b3bc9c9de,Question,5,3,story,7,Was John right about that?,no,1,1854
1567188392,1360708c969976a3853fa38b3bc9c9de,Question,7,0,politics,NULL,How worried are you about taxpayer money being wasted?,very worried,NULL,3639
1567188392,1360708c969976a3853fa38b3bc9c9de,Question,6,0,politics,NULL,How worried are you about bombs being sent to government officials?,very worried,NULL,2097
# Columns below this comment are as follows:
# 1. Time results were received.
# 2. MD5 hash of participant's IP address.
# 3. Controller name.
# 4. Item number.
# 5. Element number.
# 6. Type.
# 7. Group.
# 8. Field name.
# 9. Field value.
1567188392,1360708c969976a3853fa38b3bc9c9de,Form,8,0,subj_info,NULL,year,1961
1567188392,1360708c969976a3853fa38b3bc9c9de,Form,8,0,subj_info,NULL,language,English
1567188392,1360708c969976a3853fa38b3bc9c9de,Form,8,0,subj_info,NULL,idturk,A3FNC8ELMK8YJA
1567188392,1360708c969976a3853fa38b3bc9c9de,Form,8,0,subj_info,NULL,comment,
1567188392,1360708c969976a3853fa38b3bc9c9de,Form,8,0,subj_info,NULL,sex,female
1567188392,1360708c969976a3853fa38b3bc9c9de,Form,8,0,subj_info,NULL,politics,democrat
1567188392,1360708c969976a3853fa38b3bc9c9de,Form,8,0,subj_info,NULL,_REACTION_TIME_,22731
#
# Results on Friday August 30 2019 18:07:20 UTC.
# USER AGENT: Mozilla/5.0 (Windows NT 10.0; Win64; x64) AppleWebKit/537.36 (KHTML, like Gecko) Chrome/76.0.3809.100 Safari/537.36
# Design number was non-random = 0
#
# Columns below this comment are as follows:
# 1. Time results were received.
# 2. MD5 hash of participant's IP address.
# 3. Controller name.
# 4. Item number.
# 5. Element number.
# 6. Type.
# 7. Group.
# 8. Field name.
# 9. Field value.
1567188440,c86b2a7a1b37cc01b3932039aa9de72e,Form,3,0,consent,NULL,,yes
1567188440,c86b2a7a1b37cc01b3932039aa9de72e,Form,3,0,consent,NULL,_REACTION_TIME_,6392
1567188440,c86b2a7a1b37cc01b3932039aa9de72e,Form,4,0,instructions,NULL,_REACTION_TIME_,1994
1567188440,c86b2a7a1b37cc01b3932039aa9de72e,Form,5,0,story,7,_REACTION_TIME_,339235
# Columns below this comment are as follows:
# 1. Time results were received.
# 2. MD5 hash of participant's IP address.
# 3. Controller name.
# 4. Item number.
# 5. Element number.
# 6. Type.
# 7. Group.
# 8. Question (NULL if none).
# 9. Answer.
# 10. Whether or not answer was correct (NULL if N/A).
# 11. Time taken to answer.
1567188440,c86b2a7a1b37cc01b3932039aa9de72e,Question,5,1,story,7,What does John think is in the box?,a bomb,1,2771
1567188440,c86b2a7a1b37cc01b3932039aa9de72e,Question,5,2,story,7,What was really in the box?,a bomb,1,1460
1567188440,c86b2a7a1b37cc01b3932039aa9de72e,Question,5,3,story,7,Was John right about that?,no,1,1943
1567188440,c86b2a7a1b37cc01b3932039aa9de72e,Question,6,0,politics,NULL,How worried are you about bombs being sent to government officials?,not at all worried,NULL,2838
1567188440,c86b2a7a1b37cc01b3932039aa9de72e,Question,7,0,politics,NULL,How worried are you about taxpayer money being wasted?,not at all worried,NULL,2111
# Columns below this comment are as follows:
# 1. Time results were received.
# 2. MD5 hash of participant's IP address.
# 3. Controller name.
# 4. Item number.
# 5. Element number.
# 6. Type.
# 7. Group.
# 8. Field name.
# 9. Field value.
1567188440,c86b2a7a1b37cc01b3932039aa9de72e,Form,8,0,subj_info,NULL,year,1978
1567188440,c86b2a7a1b37cc01b3932039aa9de72e,Form,8,0,subj_info,NULL,language,English
1567188440,c86b2a7a1b37cc01b3932039aa9de72e,Form,8,0,subj_info,NULL,idturk,A15PHPJA7AWCS3
1567188440,c86b2a7a1b37cc01b3932039aa9de72e,Form,8,0,subj_info,NULL,comment,
1567188440,c86b2a7a1b37cc01b3932039aa9de72e,Form,8,0,subj_info,NULL,sex,male
1567188440,c86b2a7a1b37cc01b3932039aa9de72e,Form,8,0,subj_info,NULL,politics,democrat
1567188440,c86b2a7a1b37cc01b3932039aa9de72e,Form,8,0,subj_info,NULL,_REACTION_TIME_,15047
#
# Results on Friday August 30 2019 18:07:40 UTC.
# USER AGENT: Mozilla/5.0 (Windows NT 10.0; Win64; x64) AppleWebKit/537.36 (KHTML, like Gecko) Chrome/76.0.3809.100 Safari/537.36
# Design number was non-random = 13
#
# Columns below this comment are as follows:
# 1. Time results were received.
# 2. MD5 hash of participant's IP address.
# 3. Controller name.
# 4. Item number.
# 5. Element number.
# 6. Type.
# 7. Group.
# 8. Field name.
# 9. Field value.
1567188460,378df51ec0da75ceb778e0ce504019cd,Form,3,0,consent,NULL,,yes
1567188460,378df51ec0da75ceb778e0ce504019cd,Form,3,0,consent,NULL,_REACTION_TIME_,12940
1567188460,378df51ec0da75ceb778e0ce504019cd,Form,4,0,instructions,NULL,_REACTION_TIME_,3137
1567188460,378df51ec0da75ceb778e0ce504019cd,Form,5,0,story,7,_REACTION_TIME_,15926
# Columns below this comment are as follows:
# 1. Time results were received.
# 2. MD5 hash of participant's IP address.
# 3. Controller name.
# 4. Item number.
# 5. Element number.
# 6. Type.
# 7. Group.
# 8. Question (NULL if none).
# 9. Answer.
# 10. Whether or not answer was correct (NULL if N/A).
# 11. Time taken to answer.
1567188460,378df51ec0da75ceb778e0ce504019cd,Question,5,1,story,7,What does John think is in the box?,a bomb,1,2932
1567188460,378df51ec0da75ceb778e0ce504019cd,Question,5,2,story,7,What was really in the box?,a pillow,0,1589
1567188460,378df51ec0da75ceb778e0ce504019cd,Question,5,3,story,7,Was John right about that?,no,1,4847
1567188460,378df51ec0da75ceb778e0ce504019cd,Question,7,0,politics,NULL,How worried are you about taxpayer money being wasted?,not at all worried,NULL,6031
1567188460,378df51ec0da75ceb778e0ce504019cd,Question,6,0,politics,NULL,How worried are you about bombs being sent to government officials?,very worried,NULL,4341
# Columns below this comment are as follows:
# 1. Time results were received.
# 2. MD5 hash of participant's IP address.
# 3. Controller name.
# 4. Item number.
# 5. Element number.
# 6. Type.
# 7. Group.
# 8. Field name.
# 9. Field value.
1567188460,378df51ec0da75ceb778e0ce504019cd,Form,8,0,subj_info,NULL,year,1964
1567188460,378df51ec0da75ceb778e0ce504019cd,Form,8,0,subj_info,NULL,language,English
1567188460,378df51ec0da75ceb778e0ce504019cd,Form,8,0,subj_info,NULL,idturk,A1GB1M0AGS1YSB
1567188460,378df51ec0da75ceb778e0ce504019cd,Form,8,0,subj_info,NULL,comment,None. Thank you!
1567188460,378df51ec0da75ceb778e0ce504019cd,Form,8,0,subj_info,NULL,sex,female
1567188460,378df51ec0da75ceb778e0ce504019cd,Form,8,0,subj_info,NULL,politics,republican
1567188460,378df51ec0da75ceb778e0ce504019cd,Form,8,0,subj_info,NULL,_REACTION_TIME_,30847
#
# Results on Friday August 30 2019 18:08:02 UTC.
# USER AGENT: Mozilla/5.0 (Windows NT 6.1; Win64; x64) AppleWebKit/537.36 (KHTML, like Gecko) Chrome/76.0.3809.132 Safari/537.36
# Design number was non-random = 14
#
# Columns below this comment are as follows:
# 1. Time results were received.
# 2. MD5 hash of participant's IP address.
# 3. Controller name.
# 4. Item number.
# 5. Element number.
# 6. Type.
# 7. Group.
# 8. Field name.
# 9. Field value.
1567188483,bcd672b144a4b962f099533e9c16b2a6,Form,3,0,consent,NULL,,yes
1567188483,bcd672b144a4b962f099533e9c16b2a6,Form,3,0,consent,NULL,_REACTION_TIME_,11055
1567188483,bcd672b144a4b962f099533e9c16b2a6,Form,4,0,instructions,NULL,_REACTION_TIME_,3130
1567188483,bcd672b144a4b962f099533e9c16b2a6,Form,5,0,story,7,_REACTION_TIME_,19582
# Columns below this comment are as follows:
# 1. Time results were received.
# 2. MD5 hash of participant's IP address.
# 3. Controller name.
# 4. Item number.
# 5. Element number.
# 6. Type.
# 7. Group.
# 8. Question (NULL if none).
# 9. Answer.
# 10. Whether or not answer was correct (NULL if N/A).
# 11. Time taken to answer.
1567188483,bcd672b144a4b962f099533e9c16b2a6,Question,5,1,story,7,What does John think is in the box?,a bomb,1,2890
1567188483,bcd672b144a4b962f099533e9c16b2a6,Question,5,2,story,7,What was really in the box?,a pillow,0,1782
1567188483,bcd672b144a4b962f099533e9c16b2a6,Question,5,3,story,7,Was John right about that?,no,1,4209
1567188483,bcd672b144a4b962f099533e9c16b2a6,Question,6,0,politics,NULL,How worried are you about bombs being sent to government officials?,not at all worried,NULL,5223
1567188483,bcd672b144a4b962f099533e9c16b2a6,Question,7,0,politics,NULL,How worried are you about taxpayer money being wasted?,not at all worried,NULL,2763
# Columns below this comment are as follows:
# 1. Time results were received.
# 2. MD5 hash of participant's IP address.
# 3. Controller name.
# 4. Item number.
# 5. Element number.
# 6. Type.
# 7. Group.
# 8. Field name.
# 9. Field value.
1567188483,bcd672b144a4b962f099533e9c16b2a6,Form,8,0,subj_info,NULL,year,1970
1567188483,bcd672b144a4b962f099533e9c16b2a6,Form,8,0,subj_info,NULL,language,English
1567188483,bcd672b144a4b962f099533e9c16b2a6,Form,8,0,subj_info,NULL,idturk,A9PJRCYJEL7TJ
1567188483,bcd672b144a4b962f099533e9c16b2a6,Form,8,0,subj_info,NULL,comment,Thanks!
1567188483,bcd672b144a4b962f099533e9c16b2a6,Form,8,0,subj_info,NULL,sex,female
1567188483,bcd672b144a4b962f099533e9c16b2a6,Form,8,0,subj_info,NULL,politics,democrat
1567188483,bcd672b144a4b962f099533e9c16b2a6,Form,8,0,subj_info,NULL,_REACTION_TIME_,34968
#
# Results on Friday August 30 2019 18:08:47 UTC.
# USER AGENT: Mozilla/5.0 (Windows NT 10.0; Win64; x64) AppleWebKit/537.36 (KHTML, like Gecko) Chrome/64.0.3282.140 Safari/537.36 Edge/18.17763
# Design number was non-random = 11
#
# Columns below this comment are as follows:
# 1. Time results were received.
# 2. MD5 hash of participant's IP address.
# 3. Controller name.
# 4. Item number.
# 5. Element number.
# 6. Type.
# 7. Group.
# 8. Field name.
# 9. Field value.
1567188528,9cc8907336e275e513ee72d6e3341316,Form,3,0,consent,NULL,,yes
1567188528,9cc8907336e275e513ee72d6e3341316,Form,3,0,consent,NULL,_REACTION_TIME_,61419
1567188528,9cc8907336e275e513ee72d6e3341316,Form,4,0,instructions,NULL,_REACTION_TIME_,9567
1567188528,9cc8907336e275e513ee72d6e3341316,Form,5,0,story,7,_REACTION_TIME_,69973
# Columns below this comment are as follows:
# 1. Time results were received.
# 2. MD5 hash of participant's IP address.
# 3. Controller name.
# 4. Item number.
# 5. Element number.
# 6. Type.
# 7. Group.
# 8. Question (NULL if none).
# 9. Answer.
# 10. Whether or not answer was correct (NULL if N/A).
# 11. Time taken to answer.
1567188528,9cc8907336e275e513ee72d6e3341316,Question,5,1,story,7,What does John think is in the box?,a bomb,1,4368
1567188528,9cc8907336e275e513ee72d6e3341316,Question,5,2,story,7,What was really in the box?,a pillow,0,3932
1567188528,9cc8907336e275e513ee72d6e3341316,Question,5,3,story,7,Was John right about that?,no,1,3438
1567188528,9cc8907336e275e513ee72d6e3341316,Question,6,0,politics,NULL,How worried are you about bombs being sent to government officials?,not at all worried,NULL,9740
1567188528,9cc8907336e275e513ee72d6e3341316,Question,7,0,politics,NULL,How worried are you about taxpayer money being wasted?,a little worried,NULL,6948
# Columns below this comment are as follows:
# 1. Time results were received.
# 2. MD5 hash of participant's IP address.
# 3. Controller name.
# 4. Item number.
# 5. Element number.
# 6. Type.
# 7. Group.
# 8. Field name.
# 9. Field value.
1567188528,9cc8907336e275e513ee72d6e3341316,Form,8,0,subj_info,NULL,year,1953
1567188528,9cc8907336e275e513ee72d6e3341316,Form,8,0,subj_info,NULL,language,English
1567188528,9cc8907336e275e513ee72d6e3341316,Form,8,0,subj_info,NULL,idturk,AUTBAO7DP20SV
1567188528,9cc8907336e275e513ee72d6e3341316,Form,8,0,subj_info,NULL,comment,
1567188528,9cc8907336e275e513ee72d6e3341316,Form,8,0,subj_info,NULL,sex,female
1567188528,9cc8907336e275e513ee72d6e3341316,Form,8,0,subj_info,NULL,politics,democrat
1567188528,9cc8907336e275e513ee72d6e3341316,Form,8,0,subj_info,NULL,_REACTION_TIME_,64588
#
# Results on Friday August 30 2019 18:09:09 UTC.
# USER AGENT: Mozilla/5.0 (Windows NT 10.0; WOW64; rv:56.0) Gecko/20100101 Firefox/56.0
# Design number was non-random = 15
#
# Columns below this comment are as follows:
# 1. Time results were received.
# 2. MD5 hash of participant's IP address.
# 3. Controller name.
# 4. Item number.
# 5. Element number.
# 6. Type.
# 7. Group.
# 8. Field name.
# 9. Field value.
1567188550,175676e3de7312837d88dbacc457fa3d,Form,3,0,consent,NULL,,yes
1567188550,175676e3de7312837d88dbacc457fa3d,Form,3,0,consent,NULL,_REACTION_TIME_,20284
1567188550,175676e3de7312837d88dbacc457fa3d,Form,4,0,instructions,NULL,_REACTION_TIME_,3521
1567188550,175676e3de7312837d88dbacc457fa3d,Form,5,0,story,7,_REACTION_TIME_,31194
# Columns below this comment are as follows:
# 1. Time results were received.
# 2. MD5 hash of participant's IP address.
# 3. Controller name.
# 4. Item number.
# 5. Element number.
# 6. Type.
# 7. Group.
# 8. Question (NULL if none).
# 9. Answer.
# 10. Whether or not answer was correct (NULL if N/A).
# 11. Time taken to answer.
1567188550,175676e3de7312837d88dbacc457fa3d,Question,5,1,story,7,What does John think is in the box?,a bomb,1,2163
1567188550,175676e3de7312837d88dbacc457fa3d,Question,5,2,story,7,What was really in the box?,a pillow,0,1510
1567188550,175676e3de7312837d88dbacc457fa3d,Question,5,3,story,7,Was John right about that?,no,1,2714
1567188550,175676e3de7312837d88dbacc457fa3d,Question,6,0,politics,NULL,How worried are you about bombs being sent to government officials?,a little worried,NULL,5169
1567188550,175676e3de7312837d88dbacc457fa3d,Question,7,0,politics,NULL,How worried are you about taxpayer money being wasted?,a little worried,NULL,3904
# Columns below this comment are as follows:
# 1. Time results were received.
# 2. MD5 hash of participant's IP address.
# 3. Controller name.
# 4. Item number.
# 5. Element number.
# 6. Type.
# 7. Group.
# 8. Field name.
# 9. Field value.
1567188550,175676e3de7312837d88dbacc457fa3d,Form,8,0,subj_info,NULL,year,1971
1567188550,175676e3de7312837d88dbacc457fa3d,Form,8,0,subj_info,NULL,language,English
1567188550,175676e3de7312837d88dbacc457fa3d,Form,8,0,subj_info,NULL,idturk,A27VFM67RPD2L5
1567188550,175676e3de7312837d88dbacc457fa3d,Form,8,0,subj_info,NULL,comment,
1567188550,175676e3de7312837d88dbacc457fa3d,Form,8,0,subj_info,NULL,sex,female
1567188550,175676e3de7312837d88dbacc457fa3d,Form,8,0,subj_info,NULL,politics,other
1567188550,175676e3de7312837d88dbacc457fa3d,Form,8,0,subj_info,NULL,_REACTION_TIME_,20942
#
# Results on Friday August 30 2019 18:09:23 UTC.
# USER AGENT: Mozilla/5.0 (Windows NT 10.0; Win64; x64) AppleWebKit/537.36 (KHTML, like Gecko) Chrome/76.0.3809.132 Safari/537.36
# Design number was non-random = 14
#
# Columns below this comment are as follows:
# 1. Time results were received.
# 2. MD5 hash of participant's IP address.
# 3. Controller name.
# 4. Item number.
# 5. Element number.
# 6. Type.
# 7. Group.
# 8. Field name.
# 9. Field value.
1567188564,966cf3f4553c95bed768be652e1799a7,Form,3,0,consent,NULL,,yes
1567188564,966cf3f4553c95bed768be652e1799a7,Form,3,0,consent,NULL,_REACTION_TIME_,17690
1567188564,966cf3f4553c95bed768be652e1799a7,Form,4,0,instructions,NULL,_REACTION_TIME_,3709
1567188564,966cf3f4553c95bed768be652e1799a7,Form,5,0,story,7,_REACTION_TIME_,26260
# Columns below this comment are as follows:
# 1. Time results were received.
# 2. MD5 hash of participant's IP address.
# 3. Controller name.
# 4. Item number.
# 5. Element number.
# 6. Type.
# 7. Group.
# 8. Question (NULL if none).
# 9. Answer.
# 10. Whether or not answer was correct (NULL if N/A).
# 11. Time taken to answer.
1567188564,966cf3f4553c95bed768be652e1799a7,Question,5,1,story,7,What does John think is in the box?,a bomb,1,3714
1567188564,966cf3f4553c95bed768be652e1799a7,Question,5,2,story,7,What was really in the box?,a pillow,0,2367
1567188564,966cf3f4553c95bed768be652e1799a7,Question,5,3,story,7,Was John right about that?,no,1,3177
1567188564,966cf3f4553c95bed768be652e1799a7,Question,7,0,politics,NULL,How worried are you about taxpayer money being wasted?,very worried,NULL,4514
1567188564,966cf3f4553c95bed768be652e1799a7,Question,6,0,politics,NULL,How worried are you about bombs being sent to government officials?,a little worried,NULL,4411
# Columns below this comment are as follows:
# 1. Time results were received.
# 2. MD5 hash of participant's IP address.
# 3. Controller name.
# 4. Item number.
# 5. Element number.
# 6. Type.
# 7. Group.
# 8. Field name.
# 9. Field value.
1567188564,966cf3f4553c95bed768be652e1799a7,Form,8,0,subj_info,NULL,year,1973
1567188564,966cf3f4553c95bed768be652e1799a7,Form,8,0,subj_info,NULL,language,English
1567188564,966cf3f4553c95bed768be652e1799a7,Form,8,0,subj_info,NULL,idturk,A129GA7DAJESE2
1567188564,966cf3f4553c95bed768be652e1799a7,Form,8,0,subj_info,NULL,comment,
1567188564,966cf3f4553c95bed768be652e1799a7,Form,8,0,subj_info,NULL,sex,female
1567188564,966cf3f4553c95bed768be652e1799a7,Form,8,0,subj_info,NULL,politics,other
1567188564,966cf3f4553c95bed768be652e1799a7,Form,8,0,subj_info,NULL,_REACTION_TIME_,73562
#
# Results on Friday August 30 2019 18:09:29 UTC.
# USER AGENT: Mozilla/5.0 (X11; Linux x86_64; rv:69.0) Gecko/20100101 Firefox/69.0
# Design number was non-random = 17
#
# Columns below this comment are as follows:
# 1. Time results were received.
# 2. MD5 hash of participant's IP address.
# 3. Controller name.
# 4. Item number.
# 5. Element number.
# 6. Type.
# 7. Group.
# 8. Field name.
# 9. Field value.
1567188570,ca37f4632c18a6ed3739368c32d74abb,Form,3,0,consent,NULL,,yes
1567188570,ca37f4632c18a6ed3739368c32d74abb,Form,3,0,consent,NULL,_REACTION_TIME_,7320
1567188570,ca37f4632c18a6ed3739368c32d74abb,Form,4,0,instructions,NULL,_REACTION_TIME_,1628
1567188570,ca37f4632c18a6ed3739368c32d74abb,Form,5,0,story,7,_REACTION_TIME_,13352
# Columns below this comment are as follows:
# 1. Time results were received.
# 2. MD5 hash of participant's IP address.
# 3. Controller name.
# 4. Item number.
# 5. Element number.
# 6. Type.
# 7. Group.
# 8. Question (NULL if none).
# 9. Answer.
# 10. Whether or not answer was correct (NULL if N/A).
# 11. Time taken to answer.
1567188570,ca37f4632c18a6ed3739368c32d74abb,Question,5,1,story,7,What does John think is in the box?,a bomb,1,3047
1567188570,ca37f4632c18a6ed3739368c32d74abb,Question,5,2,story,7,What was really in the box?,a pillow,0,1662
1567188570,ca37f4632c18a6ed3739368c32d74abb,Question,5,3,story,7,Was John right about that?,no,1,1565
1567188570,ca37f4632c18a6ed3739368c32d74abb,Question,7,0,politics,NULL,How worried are you about taxpayer money being wasted?,a little worried,NULL,5834
1567188570,ca37f4632c18a6ed3739368c32d74abb,Question,6,0,politics,NULL,How worried are you about bombs being sent to government officials?,not at all worried,NULL,6851
# Columns below this comment are as follows:
# 1. Time results were received.
# 2. MD5 hash of participant's IP address.
# 3. Controller name.
# 4. Item number.
# 5. Element number.
# 6. Type.
# 7. Group.
# 8. Field name.
# 9. Field value.
1567188570,ca37f4632c18a6ed3739368c32d74abb,Form,8,0,subj_info,NULL,year,1993
1567188570,ca37f4632c18a6ed3739368c32d74abb,Form,8,0,subj_info,NULL,language,English
1567188570,ca37f4632c18a6ed3739368c32d74abb,Form,8,0,subj_info,NULL,idturk,AYXXMHLZRAPF9
1567188570,ca37f4632c18a6ed3739368c32d74abb,Form,8,0,subj_info,NULL,comment,I'm concerned about waste of taxpayer money in general%2C not necessarily of this random citizen's concern.
1567188570,ca37f4632c18a6ed3739368c32d74abb,Form,8,0,subj_info,NULL,sex,male
1567188570,ca37f4632c18a6ed3739368c32d74abb,Form,8,0,subj_info,NULL,politics,other
1567188570,ca37f4632c18a6ed3739368c32d74abb,Form,8,0,subj_info,NULL,_REACTION_TIME_,38405
#
# Results on Friday August 30 2019 18:10:33 UTC.
# USER AGENT: Mozilla/5.0 (Linux; Android 7.0; SM-J327T) AppleWebKit/537.36 (KHTML, like Gecko) Chrome/76.0.3809.132 Mobile Safari/537.36
# Design number was non-random = 19
#
# Columns below this comment are as follows:
# 1. Time results were received.
# 2. MD5 hash of participant's IP address.
# 3. Controller name.
# 4. Item number.
# 5. Element number.
# 6. Type.
# 7. Group.
# 8. Field name.
# 9. Field value.
1567188633,b367315bc48904cfadee14f462cb09fb,Form,3,0,consent,NULL,,yes
1567188633,b367315bc48904cfadee14f462cb09fb,Form,3,0,consent,NULL,_REACTION_TIME_,5549
1567188633,b367315bc48904cfadee14f462cb09fb,Form,4,0,instructions,NULL,_REACTION_TIME_,5214
1567188633,b367315bc48904cfadee14f462cb09fb,Form,5,0,story,7,_REACTION_TIME_,2648
# Columns below this comment are as follows:
# 1. Time results were received.
# 2. MD5 hash of participant's IP address.
# 3. Controller name.
# 4. Item number.
# 5. Element number.
# 6. Type.
# 7. Group.
# 8. Question (NULL if none).
# 9. Answer.
# 10. Whether or not answer was correct (NULL if N/A).
# 11. Time taken to answer.
1567188633,b367315bc48904cfadee14f462cb09fb,Question,5,1,story,7,What does John think is in the box?,a bomb,1,2958
1567188633,b367315bc48904cfadee14f462cb09fb,Question,5,2,story,7,What was really in the box?,a bomb,1,2887
1567188633,b367315bc48904cfadee14f462cb09fb,Question,5,3,story,7,Was John right about that?,yes,0,2214
1567188633,b367315bc48904cfadee14f462cb09fb,Question,6,0,politics,NULL,How worried are you about bombs being sent to government officials?,very worried,NULL,3443
1567188633,b367315bc48904cfadee14f462cb09fb,Question,7,0,politics,NULL,How worried are you about taxpayer money being wasted?,very worried,NULL,1354
# Columns below this comment are as follows:
# 1. Time results were received.
# 2. MD5 hash of participant's IP address.
# 3. Controller name.
# 4. Item number.
# 5. Element number.
# 6. Type.
# 7. Group.
# 8. Field name.
# 9. Field value.
1567188633,b367315bc48904cfadee14f462cb09fb,Form,8,0,subj_info,NULL,year,1991
1567188633,b367315bc48904cfadee14f462cb09fb,Form,8,0,subj_info,NULL,language,Georgian
1567188633,b367315bc48904cfadee14f462cb09fb,Form,8,0,subj_info,NULL,idturk,A189ZU4F43X35J
1567188633,b367315bc48904cfadee14f462cb09fb,Form,8,0,subj_info,NULL,comment,
1567188633,b367315bc48904cfadee14f462cb09fb,Form,8,0,subj_info,NULL,sex,female
1567188633,b367315bc48904cfadee14f462cb09fb,Form,8,0,subj_info,NULL,politics,democrat
1567188633,b367315bc48904cfadee14f462cb09fb,Form,8,0,subj_info,NULL,_REACTION_TIME_,47681
#
# Results on Friday August 30 2019 18:10:54 UTC.
# USER AGENT: Mozilla/5.0 (Macintosh; Intel Mac OS X 10_14_6) AppleWebKit/537.36 (KHTML, like Gecko) Chrome/76.0.3809.100 Safari/537.36
# Design number was non-random = 13
#
# Columns below this comment are as follows:
# 1. Time results were received.
# 2. MD5 hash of participant's IP address.
# 3. Controller name.
# 4. Item number.
# 5. Element number.
# 6. Type.
# 7. Group.
# 8. Field name.
# 9. Field value.
1567188654,6b2bf1c8fd6672805b5233b30e3ae2be,Form,3,0,consent,NULL,,yes
1567188654,6b2bf1c8fd6672805b5233b30e3ae2be,Form,3,0,consent,NULL,_REACTION_TIME_,13724
1567188654,6b2bf1c8fd6672805b5233b30e3ae2be,Form,4,0,instructions,NULL,_REACTION_TIME_,3726
1567188654,6b2bf1c8fd6672805b5233b30e3ae2be,Form,5,0,story,7,_REACTION_TIME_,59888
# Columns below this comment are as follows:
# 1. Time results were received.
# 2. MD5 hash of participant's IP address.
# 3. Controller name.
# 4. Item number.
# 5. Element number.
# 6. Type.
# 7. Group.
# 8. Question (NULL if none).
# 9. Answer.
# 10. Whether or not answer was correct (NULL if N/A).
# 11. Time taken to answer.
1567188654,6b2bf1c8fd6672805b5233b30e3ae2be,Question,5,1,story,7,What does John think is in the box?,a bomb,1,20323
1567188654,6b2bf1c8fd6672805b5233b30e3ae2be,Question,5,2,story,7,What was really in the box?,a pillow,0,3427
1567188654,6b2bf1c8fd6672805b5233b30e3ae2be,Question,5,3,story,7,Was John right about that?,no,1,6189
1567188654,6b2bf1c8fd6672805b5233b30e3ae2be,Question,7,0,politics,NULL,How worried are you about taxpayer money being wasted?,a little worried,NULL,98746
1567188654,6b2bf1c8fd6672805b5233b30e3ae2be,Question,6,0,politics,NULL,How worried are you about bombs being sent to government officials?,very worried,NULL,35685
# Columns below this comment are as follows:
# 1. Time results were received.
# 2. MD5 hash of participant's IP address.
# 3. Controller name.
# 4. Item number.
# 5. Element number.
# 6. Type.
# 7. Group.
# 8. Field name.
# 9. Field value.
1567188654,6b2bf1c8fd6672805b5233b30e3ae2be,Form,8,0,subj_info,NULL,year,1964
1567188654,6b2bf1c8fd6672805b5233b30e3ae2be,Form,8,0,subj_info,NULL,language,English
1567188654,6b2bf1c8fd6672805b5233b30e3ae2be,Form,8,0,subj_info,NULL,idturk,A23K0YTNUJ0GKR
1567188654,6b2bf1c8fd6672805b5233b30e3ae2be,Form,8,0,subj_info,NULL,comment,
1567188654,6b2bf1c8fd6672805b5233b30e3ae2be,Form,8,0,subj_info,NULL,sex,female
1567188654,6b2bf1c8fd6672805b5233b30e3ae2be,Form,8,0,subj_info,NULL,politics,democrat
1567188654,6b2bf1c8fd6672805b5233b30e3ae2be,Form,8,0,subj_info,NULL,_REACTION_TIME_,69456
#
# Results on Friday August 30 2019 18:12:02 UTC.
# USER AGENT: Mozilla/5.0 (Windows NT 10.0; Win64; x64) AppleWebKit/537.36 (KHTML, like Gecko) Chrome/76.0.3809.100 Safari/537.36
# Design number was non-random = 17
#
# Columns below this comment are as follows:
# 1. Time results were received.
# 2. MD5 hash of participant's IP address.
# 3. Controller name.
# 4. Item number.
# 5. Element number.
# 6. Type.
# 7. Group.
# 8. Field name.
# 9. Field value.
1567188722,6cc5321a29c247d0edaf536caea255a6,Form,3,0,consent,NULL,,yes
1567188722,6cc5321a29c247d0edaf536caea255a6,Form,3,0,consent,NULL,_REACTION_TIME_,32908
1567188722,6cc5321a29c247d0edaf536caea255a6,Form,4,0,instructions,NULL,_REACTION_TIME_,5407
1567188722,6cc5321a29c247d0edaf536caea255a6,Form,5,0,story,7,_REACTION_TIME_,97469
# Columns below this comment are as follows:
# 1. Time results were received.
# 2. MD5 hash of participant's IP address.
# 3. Controller name.
# 4. Item number.
# 5. Element number.
# 6. Type.
# 7. Group.
# 8. Question (NULL if none).
# 9. Answer.
# 10. Whether or not answer was correct (NULL if N/A).
# 11. Time taken to answer.
1567188722,6cc5321a29c247d0edaf536caea255a6,Question,5,1,story,7,What does John think is in the box?,a bomb,1,4725
1567188722,6cc5321a29c247d0edaf536caea255a6,Question,5,2,story,7,What was really in the box?,a pillow,0,2413
1567188722,6cc5321a29c247d0edaf536caea255a6,Question,5,3,story,7,Was John right about that?,no,1,12755
1567188722,6cc5321a29c247d0edaf536caea255a6,Question,6,0,politics,NULL,How worried are you about bombs being sent to government officials?,not at all worried,NULL,10011
1567188722,6cc5321a29c247d0edaf536caea255a6,Question,7,0,politics,NULL,How worried are you about taxpayer money being wasted?,a little worried,NULL,4855
# Columns below this comment are as follows:
# 1. Time results were received.
# 2. MD5 hash of participant's IP address.
# 3. Controller name.
# 4. Item number.
# 5. Element number.
# 6. Type.
# 7. Group.
# 8. Field name.
# 9. Field value.
1567188722,6cc5321a29c247d0edaf536caea255a6,Form,8,0,subj_info,NULL,year,1963
1567188722,6cc5321a29c247d0edaf536caea255a6,Form,8,0,subj_info,NULL,language,english
1567188722,6cc5321a29c247d0edaf536caea255a6,Form,8,0,subj_info,NULL,idturk,A2FJH5IO586MR3
1567188722,6cc5321a29c247d0edaf536caea255a6,Form,8,0,subj_info,NULL,comment,
1567188722,6cc5321a29c247d0edaf536caea255a6,Form,8,0,subj_info,NULL,sex,female
1567188722,6cc5321a29c247d0edaf536caea255a6,Form,8,0,subj_info,NULL,politics,other
1567188722,6cc5321a29c247d0edaf536caea255a6,Form,8,0,subj_info,NULL,_REACTION_TIME_,32761
#
# Results on Friday August 30 2019 18:12:06 UTC.
# USER AGENT: Mozilla/5.0 (X11; CrOS x86_64 12239.67.0) AppleWebKit/537.36 (KHTML, like Gecko) Chrome/76.0.3809.102 Safari/537.36
# Design number was non-random = 22
#
# Columns below this comment are as follows:
# 1. Time results were received.
# 2. MD5 hash of participant's IP address.
# 3. Controller name.
# 4. Item number.
# 5. Element number.
# 6. Type.
# 7. Group.
# 8. Field name.
# 9. Field value.
1567188727,6596298276c56a411efcedb40a093681,Form,3,0,consent,NULL,,yes
1567188727,6596298276c56a411efcedb40a093681,Form,3,0,consent,NULL,_REACTION_TIME_,16876
1567188727,6596298276c56a411efcedb40a093681,Form,4,0,instructions,NULL,_REACTION_TIME_,1896
1567188727,6596298276c56a411efcedb40a093681,Form,5,0,story,7,_REACTION_TIME_,13635
# Columns below this comment are as follows:
# 1. Time results were received.
# 2. MD5 hash of participant's IP address.
# 3. Controller name.
# 4. Item number.
# 5. Element number.
# 6. Type.
# 7. Group.
# 8. Question (NULL if none).
# 9. Answer.
# 10. Whether or not answer was correct (NULL if N/A).
# 11. Time taken to answer.
1567188727,6596298276c56a411efcedb40a093681,Question,5,1,story,7,What does John think is in the box?,a bomb,1,12871
1567188727,6596298276c56a411efcedb40a093681,Question,5,2,story,7,What was really in the box?,a pillow,0,2400
1567188727,6596298276c56a411efcedb40a093681,Question,5,3,story,7,Was John right about that?,no,1,2372
1567188727,6596298276c56a411efcedb40a093681,Question,7,0,politics,NULL,How worried are you about taxpayer money being wasted?,not at all worried,NULL,2714
1567188727,6596298276c56a411efcedb40a093681,Question,6,0,politics,NULL,How worried are you about bombs being sent to government officials?,not at all worried,NULL,9876
# Columns below this comment are as follows:
# 1. Time results were received.
# 2. MD5 hash of participant's IP address.
# 3. Controller name.
# 4. Item number.
# 5. Element number.
# 6. Type.
# 7. Group.
# 8. Field name.
# 9. Field value.
1567188727,6596298276c56a411efcedb40a093681,Form,8,0,subj_info,NULL,year,1969
1567188727,6596298276c56a411efcedb40a093681,Form,8,0,subj_info,NULL,language,English
1567188727,6596298276c56a411efcedb40a093681,Form,8,0,subj_info,NULL,idturk,A2LR1HKNOVDTJ8
1567188727,6596298276c56a411efcedb40a093681,Form,8,0,subj_info,NULL,comment,
1567188727,6596298276c56a411efcedb40a093681,Form,8,0,subj_info,NULL,sex,male
1567188727,6596298276c56a411efcedb40a093681,Form,8,0,subj_info,NULL,politics,other
1567188727,6596298276c56a411efcedb40a093681,Form,8,0,subj_info,NULL,_REACTION_TIME_,23188
#
# Results on Friday August 30 2019 18:13:08 UTC.
# USER AGENT: Mozilla/5.0 (X11; CrOS x86_64 12239.67.0) AppleWebKit/537.36 (KHTML, like Gecko) Chrome/76.0.3809.102 Safari/537.36
# Design number was non-random = 23
#
# Columns below this comment are as follows:
# 1. Time results were received.
# 2. MD5 hash of participant's IP address.
# 3. Controller name.
# 4. Item number.
# 5. Element number.
# 6. Type.
# 7. Group.
# 8. Field name.
# 9. Field value.
1567188788,98bb546b37b0d32586f1ebaa142663de,Form,3,0,consent,NULL,,yes
1567188788,98bb546b37b0d32586f1ebaa142663de,Form,3,0,consent,NULL,_REACTION_TIME_,15999
1567188788,98bb546b37b0d32586f1ebaa142663de,Form,4,0,instructions,NULL,_REACTION_TIME_,2715
1567188788,98bb546b37b0d32586f1ebaa142663de,Form,5,0,story,7,_REACTION_TIME_,46587
# Columns below this comment are as follows:
# 1. Time results were received.
# 2. MD5 hash of participant's IP address.
# 3. Controller name.
# 4. Item number.
# 5. Element number.
# 6. Type.
# 7. Group.
# 8. Question (NULL if none).
# 9. Answer.
# 10. Whether or not answer was correct (NULL if N/A).
# 11. Time taken to answer.
1567188788,98bb546b37b0d32586f1ebaa142663de,Question,5,1,story,7,What does John think is in the box?,a bomb,1,3008
1567188788,98bb546b37b0d32586f1ebaa142663de,Question,5,2,story,7,What was really in the box?,a pillow,0,1864
1567188788,98bb546b37b0d32586f1ebaa142663de,Question,5,3,story,7,Was John right about that?,no,1,2213
1567188788,98bb546b37b0d32586f1ebaa142663de,Question,7,0,politics,NULL,How worried are you about taxpayer money being wasted?,very worried,NULL,3506
1567188788,98bb546b37b0d32586f1ebaa142663de,Question,6,0,politics,NULL,How worried are you about bombs being sent to government officials?,very worried,NULL,3226
# Columns below this comment are as follows:
# 1. Time results were received.
# 2. MD5 hash of participant's IP address.
# 3. Controller name.
# 4. Item number.
# 5. Element number.
# 6. Type.
# 7. Group.
# 8. Field name.
# 9. Field value.
1567188788,98bb546b37b0d32586f1ebaa142663de,Form,8,0,subj_info,NULL,year,1988
1567188788,98bb546b37b0d32586f1ebaa142663de,Form,8,0,subj_info,NULL,language,english
1567188788,98bb546b37b0d32586f1ebaa142663de,Form,8,0,subj_info,NULL,idturk,A3CJS37DSXQOAZ
1567188788,98bb546b37b0d32586f1ebaa142663de,Form,8,0,subj_info,NULL,comment,
1567188788,98bb546b37b0d32586f1ebaa142663de,Form,8,0,subj_info,NULL,sex,female
1567188788,98bb546b37b0d32586f1ebaa142663de,Form,8,0,subj_info,NULL,politics,other
1567188788,98bb546b37b0d32586f1ebaa142663de,Form,8,0,subj_info,NULL,_REACTION_TIME_,23820
#
# Results on Friday August 30 2019 18:14:08 UTC.
# USER AGENT: Mozilla/5.0 (Macintosh; Intel Mac OS X 10_10_5) AppleWebKit/537.36 (KHTML, like Gecko) Chrome/75.0.3770.100 Safari/537.36
# Design number was non-random = 25
#
# Columns below this comment are as follows:
# 1. Time results were received.
# 2. MD5 hash of participant's IP address.
# 3. Controller name.
# 4. Item number.
# 5. Element number.
# 6. Type.
# 7. Group.
# 8. Field name.
# 9. Field value.
1567188848,3ad34c562999fba23f4067a9ecdb8b77,Form,3,0,consent,NULL,,yes
1567188848,3ad34c562999fba23f4067a9ecdb8b77,Form,3,0,consent,NULL,_REACTION_TIME_,49015
1567188848,3ad34c562999fba23f4067a9ecdb8b77,Form,4,0,instructions,NULL,_REACTION_TIME_,3254
1567188848,3ad34c562999fba23f4067a9ecdb8b77,Form,5,0,story,7,_REACTION_TIME_,21997
# Columns below this comment are as follows:
# 1. Time results were received.
# 2. MD5 hash of participant's IP address.
# 3. Controller name.
# 4. Item number.
# 5. Element number.
# 6. Type.
# 7. Group.
# 8. Question (NULL if none).
# 9. Answer.
# 10. Whether or not answer was correct (NULL if N/A).
# 11. Time taken to answer.
1567188848,3ad34c562999fba23f4067a9ecdb8b77,Question,5,1,story,7,What does John think is in the box?,a bomb,1,4182
1567188848,3ad34c562999fba23f4067a9ecdb8b77,Question,5,2,story,7,What was really in the box?,a pillow,0,2431
1567188848,3ad34c562999fba23f4067a9ecdb8b77,Question,5,3,story,7,Was John right about that?,no,1,2460
1567188848,3ad34c562999fba23f4067a9ecdb8b77,Question,6,0,politics,NULL,How worried are you about bombs being sent to government officials?,not at all worried,NULL,7566
1567188848,3ad34c562999fba23f4067a9ecdb8b77,Question,7,0,politics,NULL,How worried are you about taxpayer money being wasted?,very worried,NULL,3534
# Columns below this comment are as follows:
# 1. Time results were received.
# 2. MD5 hash of participant's IP address.
# 3. Controller name.
# 4. Item number.
# 5. Element number.
# 6. Type.
# 7. Group.
# 8. Field name.
# 9. Field value.
1567188848,3ad34c562999fba23f4067a9ecdb8b77,Form,8,0,subj_info,NULL,year,1995
1567188848,3ad34c562999fba23f4067a9ecdb8b77,Form,8,0,subj_info,NULL,language,English
1567188848,3ad34c562999fba23f4067a9ecdb8b77,Form,8,0,subj_info,NULL,idturk,A3ENS1XT17ODR6
1567188848,3ad34c562999fba23f4067a9ecdb8b77,Form,8,0,subj_info,NULL,comment,
1567188848,3ad34c562999fba23f4067a9ecdb8b77,Form,8,0,subj_info,NULL,sex,male
1567188848,3ad34c562999fba23f4067a9ecdb8b77,Form,8,0,subj_info,NULL,politics,democrat
1567188848,3ad34c562999fba23f4067a9ecdb8b77,Form,8,0,subj_info,NULL,_REACTION_TIME_,21927
#
# Results on Friday August 30 2019 18:15:19 UTC.
# USER AGENT: Mozilla/5.0 (Windows NT 6.1; WOW64; Trident/7.0; rv:11.0) like Gecko
# Design number was non-random = 27
#
# Columns below this comment are as follows:
# 1. Time results were received.
# 2. MD5 hash of participant's IP address.
# 3. Controller name.
# 4. Item number.
# 5. Element number.
# 6. Type.
# 7. Group.
# 8. Field name.
# 9. Field value.
1567188919,d82a45e7d4b711890ce0f824056e30e5,Form,3,0,consent,NULL,,yes
1567188919,d82a45e7d4b711890ce0f824056e30e5,Form,3,0,consent,NULL,_REACTION_TIME_,4742
1567188919,d82a45e7d4b711890ce0f824056e30e5,Form,4,0,instructions,NULL,_REACTION_TIME_,2374
1567188919,d82a45e7d4b711890ce0f824056e30e5,Form,5,0,story,7,_REACTION_TIME_,21033
# Columns below this comment are as follows:
# 1. Time results were received.
# 2. MD5 hash of participant's IP address.
# 3. Controller name.
# 4. Item number.
# 5. Element number.
# 6. Type.
# 7. Group.
# 8. Question (NULL if none).
# 9. Answer.
# 10. Whether or not answer was correct (NULL if N/A).
# 11. Time taken to answer.
1567188919,d82a45e7d4b711890ce0f824056e30e5,Question,5,1,story,7,What does John think is in the box?,a bomb,1,3936
1567188919,d82a45e7d4b711890ce0f824056e30e5,Question,5,2,story,7,What was really in the box?,a pillow,0,1425
1567188919,d82a45e7d4b711890ce0f824056e30e5,Question,5,3,story,7,Was John right about that?,no,1,3488
1567188919,d82a45e7d4b711890ce0f824056e30e5,Question,7,0,politics,NULL,How worried are you about taxpayer money being wasted?,not at all worried,NULL,5902
1567188919,d82a45e7d4b711890ce0f824056e30e5,Question,6,0,politics,NULL,How worried are you about bombs being sent to government officials?,very worried,NULL,4862
# Columns below this comment are as follows:
# 1. Time results were received.
# 2. MD5 hash of participant's IP address.
# 3. Controller name.
# 4. Item number.
# 5. Element number.
# 6. Type.
# 7. Group.
# 8. Field name.
# 9. Field value.
1567188919,d82a45e7d4b711890ce0f824056e30e5,Form,8,0,subj_info,NULL,year,1989
1567188919,d82a45e7d4b711890ce0f824056e30e5,Form,8,0,subj_info,NULL,language,English
1567188919,d82a45e7d4b711890ce0f824056e30e5,Form,8,0,subj_info,NULL,idturk,A36TRK1NRB51EQ
1567188919,d82a45e7d4b711890ce0f824056e30e5,Form,8,0,subj_info,NULL,comment,
1567188919,d82a45e7d4b711890ce0f824056e30e5,Form,8,0,subj_info,NULL,sex,female
1567188919,d82a45e7d4b711890ce0f824056e30e5,Form,8,0,subj_info,NULL,politics,other
1567188919,d82a45e7d4b711890ce0f824056e30e5,Form,8,0,subj_info,NULL,_REACTION_TIME_,20629
#
# Results on Friday August 30 2019 18:15:23 UTC.
# USER AGENT: Mozilla/5.0 (Windows NT 10.0; WOW64) AppleWebKit/537.36 (KHTML, like Gecko) Chrome/75.0.3770.80 Safari/537.36
# Design number was non-random = 25
#
# Columns below this comment are as follows:
# 1. Time results were received.
# 2. MD5 hash of participant's IP address.
# 3. Controller name.
# 4. Item number.
# 5. Element number.
# 6. Type.
# 7. Group.
# 8. Field name.
# 9. Field value.
1567188924,b20874335f1543ed4fb5d52089ac74ec,Form,3,0,consent,NULL,,yes
1567188924,b20874335f1543ed4fb5d52089ac74ec,Form,3,0,consent,NULL,_REACTION_TIME_,5557
1567188924,b20874335f1543ed4fb5d52089ac74ec,Form,4,0,instructions,NULL,_REACTION_TIME_,3763
1567188924,b20874335f1543ed4fb5d52089ac74ec,Form,5,0,story,7,_REACTION_TIME_,98046
# Columns below this comment are as follows:
# 1. Time results were received.
# 2. MD5 hash of participant's IP address.
# 3. Controller name.
# 4. Item number.
# 5. Element number.
# 6. Type.
# 7. Group.
# 8. Question (NULL if none).
# 9. Answer.
# 10. Whether or not answer was correct (NULL if N/A).
# 11. Time taken to answer.
1567188924,b20874335f1543ed4fb5d52089ac74ec,Question,5,1,story,7,What does John think is in the box?,a bomb,1,2030
1567188924,b20874335f1543ed4fb5d52089ac74ec,Question,5,2,story,7,What was really in the box?,a pillow,0,1002
1567188924,b20874335f1543ed4fb5d52089ac74ec,Question,5,3,story,7,Was John right about that?,no,1,1718
1567188924,b20874335f1543ed4fb5d52089ac74ec,Question,7,0,politics,NULL,How worried are you about taxpayer money being wasted?,a little worried,NULL,3071
1567188924,b20874335f1543ed4fb5d52089ac74ec,Question,6,0,politics,NULL,How worried are you about bombs being sent to government officials?,a little worried,NULL,4631
# Columns below this comment are as follows:
# 1. Time results were received.
# 2. MD5 hash of participant's IP address.
# 3. Controller name.
# 4. Item number.
# 5. Element number.
# 6. Type.
# 7. Group.
# 8. Field name.
# 9. Field value.
1567188924,b20874335f1543ed4fb5d52089ac74ec,Form,8,0,subj_info,NULL,year,1991
1567188924,b20874335f1543ed4fb5d52089ac74ec,Form,8,0,subj_info,NULL,language,English
1567188924,b20874335f1543ed4fb5d52089ac74ec,Form,8,0,subj_info,NULL,idturk,ACHZV6EH3HWTZ
1567188924,b20874335f1543ed4fb5d52089ac74ec,Form,8,0,subj_info,NULL,comment,
1567188924,b20874335f1543ed4fb5d52089ac74ec,Form,8,0,subj_info,NULL,sex,female
1567188924,b20874335f1543ed4fb5d52089ac74ec,Form,8,0,subj_info,NULL,politics,democrat
1567188924,b20874335f1543ed4fb5d52089ac74ec,Form,8,0,subj_info,NULL,_REACTION_TIME_,15838
#
# Results on Friday August 30 2019 18:16:05 UTC.
# USER AGENT: Mozilla/5.0 (Windows NT 10.0; Win64; x64) AppleWebKit/537.36 (KHTML, like Gecko) Chrome/76.0.3809.100 Safari/537.36
# Design number was non-random = 27
#
# Columns below this comment are as follows:
# 1. Time results were received.
# 2. MD5 hash of participant's IP address.
# 3. Controller name.
# 4. Item number.
# 5. Element number.
# 6. Type.
# 7. Group.
# 8. Field name.
# 9. Field value.
1567188966,e67635d704d927397ec10b5230134e1f,Form,3,0,consent,NULL,,yes
1567188966,e67635d704d927397ec10b5230134e1f,Form,3,0,consent,NULL,_REACTION_TIME_,5828
1567188966,e67635d704d927397ec10b5230134e1f,Form,4,0,instructions,NULL,_REACTION_TIME_,1548
1567188966,e67635d704d927397ec10b5230134e1f,Form,5,0,story,7,_REACTION_TIME_,16439
# Columns below this comment are as follows:
# 1. Time results were received.
# 2. MD5 hash of participant's IP address.
# 3. Controller name.
# 4. Item number.
# 5. Element number.
# 6. Type.
# 7. Group.
# 8. Question (NULL if none).
# 9. Answer.
# 10. Whether or not answer was correct (NULL if N/A).
# 11. Time taken to answer.
1567188966,e67635d704d927397ec10b5230134e1f,Question,5,1,story,7,What does John think is in the box?,a bomb,1,2684
1567188966,e67635d704d927397ec10b5230134e1f,Question,5,2,story,7,What was really in the box?,a pillow,0,1645
1567188966,e67635d704d927397ec10b5230134e1f,Question,5,3,story,7,Was John right about that?,no,1,4014
1567188966,e67635d704d927397ec10b5230134e1f,Question,7,0,politics,NULL,How worried are you about taxpayer money being wasted?,not at all worried,NULL,3862
1567188966,e67635d704d927397ec10b5230134e1f,Question,6,0,politics,NULL,How worried are you about bombs being sent to government officials?,a little worried,NULL,2718
# Columns below this comment are as follows:
# 1. Time results were received.
# 2. MD5 hash of participant's IP address.
# 3. Controller name.
# 4. Item number.
# 5. Element number.
# 6. Type.
# 7. Group.
# 8. Field name.
# 9. Field value.
1567188966,e67635d704d927397ec10b5230134e1f,Form,8,0,subj_info,NULL,year,1990
1567188966,e67635d704d927397ec10b5230134e1f,Form,8,0,subj_info,NULL,language,English
1567188966,e67635d704d927397ec10b5230134e1f,Form,8,0,subj_info,NULL,idturk,A3B4XYSG4967DW
1567188966,e67635d704d927397ec10b5230134e1f,Form,8,0,subj_info,NULL,comment,
1567188966,e67635d704d927397ec10b5230134e1f,Form,8,0,subj_info,NULL,sex,female
1567188966,e67635d704d927397ec10b5230134e1f,Form,8,0,subj_info,NULL,politics,republican
1567188966,e67635d704d927397ec10b5230134e1f,Form,8,0,subj_info,NULL,_REACTION_TIME_,19223
#
# Results on Friday August 30 2019 18:17:40 UTC.
# USER AGENT: Mozilla/5.0 (Windows NT 6.3; Win64; x64) AppleWebKit/537.36 (KHTML, like Gecko) Chrome/76.0.3809.132 Safari/537.36
# Design number was non-random = 30
#
# Columns below this comment are as follows:
# 1. Time results were received.
# 2. MD5 hash of participant's IP address.
# 3. Controller name.
# 4. Item number.
# 5. Element number.
# 6. Type.
# 7. Group.
# 8. Field name.
# 9. Field value.
1567189061,f863ead62cfb69a64fdd517113d712f3,Form,3,0,consent,NULL,,yes
1567189061,f863ead62cfb69a64fdd517113d712f3,Form,3,0,consent,NULL,_REACTION_TIME_,11634
1567189061,f863ead62cfb69a64fdd517113d712f3,Form,4,0,instructions,NULL,_REACTION_TIME_,2035
1567189061,f863ead62cfb69a64fdd517113d712f3,Form,5,0,story,7,_REACTION_TIME_,15190
# Columns below this comment are as follows:
# 1. Time results were received.
# 2. MD5 hash of participant's IP address.
# 3. Controller name.
# 4. Item number.
# 5. Element number.
# 6. Type.
# 7. Group.
# 8. Question (NULL if none).
# 9. Answer.
# 10. Whether or not answer was correct (NULL if N/A).
# 11. Time taken to answer.
1567189061,f863ead62cfb69a64fdd517113d712f3,Question,5,1,story,7,What does John think is in the box?,a bomb,1,3238
1567189061,f863ead62cfb69a64fdd517113d712f3,Question,5,2,story,7,What was really in the box?,a pillow,0,1518
1567189061,f863ead62cfb69a64fdd517113d712f3,Question,5,3,story,7,Was John right about that?,no,1,2879
1567189061,f863ead62cfb69a64fdd517113d712f3,Question,6,0,politics,NULL,How worried are you about bombs being sent to government officials?,not at all worried,NULL,3344
1567189061,f863ead62cfb69a64fdd517113d712f3,Question,7,0,politics,NULL,How worried are you about taxpayer money being wasted?,very worried,NULL,2831
# Columns below this comment are as follows:
# 1. Time results were received.
# 2. MD5 hash of participant's IP address.
# 3. Controller name.
# 4. Item number.
# 5. Element number.
# 6. Type.
# 7. Group.
# 8. Field name.
# 9. Field value.
1567189061,f863ead62cfb69a64fdd517113d712f3,Form,8,0,subj_info,NULL,year,1987
1567189061,f863ead62cfb69a64fdd517113d712f3,Form,8,0,subj_info,NULL,language,English
1567189061,f863ead62cfb69a64fdd517113d712f3,Form,8,0,subj_info,NULL,idturk,A3B6LOGQOOQK5I
1567189061,f863ead62cfb69a64fdd517113d712f3,Form,8,0,subj_info,NULL,comment,
1567189061,f863ead62cfb69a64fdd517113d712f3,Form,8,0,subj_info,NULL,sex,male
1567189061,f863ead62cfb69a64fdd517113d712f3,Form,8,0,subj_info,NULL,politics,other
1567189061,f863ead62cfb69a64fdd517113d712f3,Form,8,0,subj_info,NULL,_REACTION_TIME_,24798
#
# Results on Friday August 30 2019 18:19:17 UTC.
# USER AGENT: Mozilla/5.0 (Windows NT 10.0; WOW64) AppleWebKit/537.36 (KHTML, like Gecko) Chrome/76.0.3809.132 Safari/537.36
# Design number was non-random = 31
#
# Columns below this comment are as follows:
# 1. Time results were received.
# 2. MD5 hash of participant's IP address.
# 3. Controller name.
# 4. Item number.
# 5. Element number.
# 6. Type.
# 7. Group.
# 8. Field name.
# 9. Field value.
1567189158,8b094e32178dbe8af34acc3fa997c149,Form,3,0,consent,NULL,,yes
1567189158,8b094e32178dbe8af34acc3fa997c149,Form,3,0,consent,NULL,_REACTION_TIME_,9276
1567189158,8b094e32178dbe8af34acc3fa997c149,Form,4,0,instructions,NULL,_REACTION_TIME_,2714
1567189158,8b094e32178dbe8af34acc3fa997c149,Form,5,0,story,7,_REACTION_TIME_,6888
# Columns below this comment are as follows:
# 1. Time results were received.
# 2. MD5 hash of participant's IP address.
# 3. Controller name.
# 4. Item number.
# 5. Element number.
# 6. Type.
# 7. Group.
# 8. Question (NULL if none).
# 9. Answer.
# 10. Whether or not answer was correct (NULL if N/A).
# 11. Time taken to answer.
1567189158,8b094e32178dbe8af34acc3fa997c149,Question,5,1,story,7,What does John think is in the box?,a bomb,1,2066
1567189158,8b094e32178dbe8af34acc3fa997c149,Question,5,2,story,7,What was really in the box?,a pillow,0,1931
1567189158,8b094e32178dbe8af34acc3fa997c149,Question,5,3,story,7,Was John right about that?,no,1,3728
1567189158,8b094e32178dbe8af34acc3fa997c149,Question,7,0,politics,NULL,How worried are you about taxpayer money being wasted?,very worried,NULL,2122
1567189158,8b094e32178dbe8af34acc3fa997c149,Question,6,0,politics,NULL,How worried are you about bombs being sent to government officials?,very worried,NULL,1616
# Columns below this comment are as follows:
# 1. Time results were received.
# 2. MD5 hash of participant's IP address.
# 3. Controller name.
# 4. Item number.
# 5. Element number.
# 6. Type.
# 7. Group.
# 8. Field name.
# 9. Field value.
1567189158,8b094e32178dbe8af34acc3fa997c149,Form,8,0,subj_info,NULL,year,1985
1567189158,8b094e32178dbe8af34acc3fa997c149,Form,8,0,subj_info,NULL,language,English
1567189158,8b094e32178dbe8af34acc3fa997c149,Form,8,0,subj_info,NULL,idturk,A62RZY5BWOZZM
1567189158,8b094e32178dbe8af34acc3fa997c149,Form,8,0,subj_info,NULL,comment,
1567189158,8b094e32178dbe8af34acc3fa997c149,Form,8,0,subj_info,NULL,sex,male
1567189158,8b094e32178dbe8af34acc3fa997c149,Form,8,0,subj_info,NULL,politics,democrat
1567189158,8b094e32178dbe8af34acc3fa997c149,Form,8,0,subj_info,NULL,_REACTION_TIME_,22259
#
# Results on Friday August 30 2019 18:19:20 UTC.
# USER AGENT: Mozilla/5.0 (Windows NT 10.0) AppleWebKit/537.36 (KHTML, like Gecko) Chrome/64.0.3282.140 Safari/537.36 Edge/17.17134
# Design number was non-random = 30
#
# Columns below this comment are as follows:
# 1. Time results were received.
# 2. MD5 hash of participant's IP address.
# 3. Controller name.
# 4. Item number.
# 5. Element number.
# 6. Type.
# 7. Group.
# 8. Field name.
# 9. Field value.
1567189160,30a98a03e2ffd84120b1951f2c398086,Form,3,0,consent,NULL,,yes
1567189160,30a98a03e2ffd84120b1951f2c398086,Form,3,0,consent,NULL,_REACTION_TIME_,10117
1567189160,30a98a03e2ffd84120b1951f2c398086,Form,4,0,instructions,NULL,_REACTION_TIME_,4453
1567189160,30a98a03e2ffd84120b1951f2c398086,Form,5,0,story,7,_REACTION_TIME_,26841
# Columns below this comment are as follows:
# 1. Time results were received.
# 2. MD5 hash of participant's IP address.
# 3. Controller name.
# 4. Item number.
# 5. Element number.
# 6. Type.
# 7. Group.
# 8. Question (NULL if none).
# 9. Answer.
# 10. Whether or not answer was correct (NULL if N/A).
# 11. Time taken to answer.
1567189160,30a98a03e2ffd84120b1951f2c398086,Question,5,1,story,7,What does John think is in the box?,a bomb,1,8078
1567189160,30a98a03e2ffd84120b1951f2c398086,Question,5,2,story,7,What was really in the box?,a pillow,0,2994
1567189160,30a98a03e2ffd84120b1951f2c398086,Question,5,3,story,7,Was John right about that?,no,1,3865
1567189160,30a98a03e2ffd84120b1951f2c398086,Question,7,0,politics,NULL,How worried are you about taxpayer money being wasted?,very worried,NULL,5754
1567189160,30a98a03e2ffd84120b1951f2c398086,Question,6,0,politics,NULL,How worried are you about bombs being sent to government officials?,very worried,NULL,2638
# Columns below this comment are as follows:
# 1. Time results were received.
# 2. MD5 hash of participant's IP address.
# 3. Controller name.
# 4. Item number.
# 5. Element number.
# 6. Type.
# 7. Group.
# 8. Field name.
# 9. Field value.
1567189160,30a98a03e2ffd84120b1951f2c398086,Form,8,0,subj_info,NULL,year,1986
1567189160,30a98a03e2ffd84120b1951f2c398086,Form,8,0,subj_info,NULL,language,english
1567189160,30a98a03e2ffd84120b1951f2c398086,Form,8,0,subj_info,NULL,idturk,  A2K38UD7IU9IZB
1567189160,30a98a03e2ffd84120b1951f2c398086,Form,8,0,subj_info,NULL,comment,
1567189160,30a98a03e2ffd84120b1951f2c398086,Form,8,0,subj_info,NULL,sex,female
1567189160,30a98a03e2ffd84120b1951f2c398086,Form,8,0,subj_info,NULL,politics,democrat
1567189160,30a98a03e2ffd84120b1951f2c398086,Form,8,0,subj_info,NULL,_REACTION_TIME_,57043
#
# Results on Friday August 30 2019 18:20:11 UTC.
# USER AGENT: Mozilla/5.0 (Windows NT 10.0; Win64; x64) AppleWebKit/537.36 (KHTML, like Gecko) Chrome/76.0.3809.132 Safari/537.36
# Design number was non-random = 31
#
# Columns below this comment are as follows:
# 1. Time results were received.
# 2. MD5 hash of participant's IP address.
# 3. Controller name.
# 4. Item number.
# 5. Element number.
# 6. Type.
# 7. Group.
# 8. Field name.
# 9. Field value.
1567189211,9ce5d4accac327729392a4c3d3f864dc,Form,3,0,consent,NULL,,yes
1567189211,9ce5d4accac327729392a4c3d3f864dc,Form,3,0,consent,NULL,_REACTION_TIME_,9853
1567189211,9ce5d4accac327729392a4c3d3f864dc,Form,4,0,instructions,NULL,_REACTION_TIME_,1474
1567189211,9ce5d4accac327729392a4c3d3f864dc,Form,5,0,story,7,_REACTION_TIME_,13429
# Columns below this comment are as follows:
# 1. Time results were received.
# 2. MD5 hash of participant's IP address.
# 3. Controller name.
# 4. Item number.
# 5. Element number.
# 6. Type.
# 7. Group.
# 8. Question (NULL if none).
# 9. Answer.
# 10. Whether or not answer was correct (NULL if N/A).
# 11. Time taken to answer.
1567189211,9ce5d4accac327729392a4c3d3f864dc,Question,5,1,story,7,What does John think is in the box?,a bomb,1,1940
1567189211,9ce5d4accac327729392a4c3d3f864dc,Question,5,2,story,7,What was really in the box?,a bomb,1,2153
1567189211,9ce5d4accac327729392a4c3d3f864dc,Question,5,3,story,7,Was John right about that?,yes,0,972
1567189211,9ce5d4accac327729392a4c3d3f864dc,Question,6,0,politics,NULL,How worried are you about bombs being sent to government officials?,a little worried,NULL,5401
1567189211,9ce5d4accac327729392a4c3d3f864dc,Question,7,0,politics,NULL,How worried are you about taxpayer money being wasted?,a little worried,NULL,3122
# Columns below this comment are as follows:
# 1. Time results were received.
# 2. MD5 hash of participant's IP address.
# 3. Controller name.
# 4. Item number.
# 5. Element number.
# 6. Type.
# 7. Group.
# 8. Field name.
# 9. Field value.
1567189211,9ce5d4accac327729392a4c3d3f864dc,Form,8,0,subj_info,NULL,year,1997
1567189211,9ce5d4accac327729392a4c3d3f864dc,Form,8,0,subj_info,NULL,language,English
1567189211,9ce5d4accac327729392a4c3d3f864dc,Form,8,0,subj_info,NULL,idturk,A2P71A26J6T6EA
1567189211,9ce5d4accac327729392a4c3d3f864dc,Form,8,0,subj_info,NULL,comment,
1567189211,9ce5d4accac327729392a4c3d3f864dc,Form,8,0,subj_info,NULL,sex,male
1567189211,9ce5d4accac327729392a4c3d3f864dc,Form,8,0,subj_info,NULL,politics,republican
1567189211,9ce5d4accac327729392a4c3d3f864dc,Form,8,0,subj_info,NULL,_REACTION_TIME_,17743
#
# Results on Friday August 30 2019 18:21:59 UTC.
# USER AGENT: Mozilla/5.0 (Windows NT 6.1; Win64; x64) AppleWebKit/537.36 (KHTML, like Gecko) Chrome/76.0.3809.132 Safari/537.36
# Design number was non-random = 33
#
# Columns below this comment are as follows:
# 1. Time results were received.
# 2. MD5 hash of participant's IP address.
# 3. Controller name.
# 4. Item number.
# 5. Element number.
# 6. Type.
# 7. Group.
# 8. Field name.
# 9. Field value.
1567189320,f81ee63f7a4b5730d20b5507c96555bb,Form,3,0,consent,NULL,,yes
1567189320,f81ee63f7a4b5730d20b5507c96555bb,Form,3,0,consent,NULL,_REACTION_TIME_,42041
1567189320,f81ee63f7a4b5730d20b5507c96555bb,Form,4,0,instructions,NULL,_REACTION_TIME_,2665
1567189320,f81ee63f7a4b5730d20b5507c96555bb,Form,5,0,story,7,_REACTION_TIME_,32331
# Columns below this comment are as follows:
# 1. Time results were received.
# 2. MD5 hash of participant's IP address.
# 3. Controller name.
# 4. Item number.
# 5. Element number.
# 6. Type.
# 7. Group.
# 8. Question (NULL if none).
# 9. Answer.
# 10. Whether or not answer was correct (NULL if N/A).
# 11. Time taken to answer.
1567189320,f81ee63f7a4b5730d20b5507c96555bb,Question,5,1,story,7,What does John think is in the box?,a bomb,1,2974
1567189320,f81ee63f7a4b5730d20b5507c96555bb,Question,5,2,story,7,What was really in the box?,a pillow,0,628
1567189320,f81ee63f7a4b5730d20b5507c96555bb,Question,5,3,story,7,Was John right about that?,no,1,3749
1567189320,f81ee63f7a4b5730d20b5507c96555bb,Question,7,0,politics,NULL,How worried are you about taxpayer money being wasted?,very worried,NULL,3547
1567189320,f81ee63f7a4b5730d20b5507c96555bb,Question,6,0,politics,NULL,How worried are you about bombs being sent to government officials?,very worried,NULL,2957
# Columns below this comment are as follows:
# 1. Time results were received.
# 2. MD5 hash of participant's IP address.
# 3. Controller name.
# 4. Item number.
# 5. Element number.
# 6. Type.
# 7. Group.
# 8. Field name.
# 9. Field value.
1567189320,f81ee63f7a4b5730d20b5507c96555bb,Form,8,0,subj_info,NULL,year,1983
1567189320,f81ee63f7a4b5730d20b5507c96555bb,Form,8,0,subj_info,NULL,language,English
1567189320,f81ee63f7a4b5730d20b5507c96555bb,Form,8,0,subj_info,NULL,idturk,A7XC73QHJNADV
1567189320,f81ee63f7a4b5730d20b5507c96555bb,Form,8,0,subj_info,NULL,comment,
1567189320,f81ee63f7a4b5730d20b5507c96555bb,Form,8,0,subj_info,NULL,sex,female
1567189320,f81ee63f7a4b5730d20b5507c96555bb,Form,8,0,subj_info,NULL,politics,other
1567189320,f81ee63f7a4b5730d20b5507c96555bb,Form,8,0,subj_info,NULL,_REACTION_TIME_,20809
#
# Results on Friday August 30 2019 18:23:30 UTC.
# USER AGENT: Mozilla/5.0 (Linux; Android 9; SM-G960U) AppleWebKit/537.36 (KHTML, like Gecko) Chrome/74.0.3729.157 Mobile Safari/537.36
# Design number was non-random = 35
#
# Columns below this comment are as follows:
# 1. Time results were received.
# 2. MD5 hash of participant's IP address.
# 3. Controller name.
# 4. Item number.
# 5. Element number.
# 6. Type.
# 7. Group.
# 8. Field name.
# 9. Field value.
1567189411,6923ad253fa7702b5af1b19e6bcad8c6,Form,3,0,consent,NULL,,yes
1567189411,6923ad253fa7702b5af1b19e6bcad8c6,Form,3,0,consent,NULL,_REACTION_TIME_,5267
1567189411,6923ad253fa7702b5af1b19e6bcad8c6,Form,4,0,instructions,NULL,_REACTION_TIME_,1155
1567189411,6923ad253fa7702b5af1b19e6bcad8c6,Form,5,0,story,7,_REACTION_TIME_,22057
# Columns below this comment are as follows:
# 1. Time results were received.
# 2. MD5 hash of participant's IP address.
# 3. Controller name.
# 4. Item number.
# 5. Element number.
# 6. Type.
# 7. Group.
# 8. Question (NULL if none).
# 9. Answer.
# 10. Whether or not answer was correct (NULL if N/A).
# 11. Time taken to answer.
1567189411,6923ad253fa7702b5af1b19e6bcad8c6,Question,5,1,story,7,What does John think is in the box?,a bomb,1,4541
1567189411,6923ad253fa7702b5af1b19e6bcad8c6,Question,5,2,story,7,What was really in the box?,a pillow,0,2426
1567189411,6923ad253fa7702b5af1b19e6bcad8c6,Question,5,3,story,7,Was John right about that?,no,1,2591
1567189411,6923ad253fa7702b5af1b19e6bcad8c6,Question,7,0,politics,NULL,How worried are you about taxpayer money being wasted?,a little worried,NULL,5736
1567189411,6923ad253fa7702b5af1b19e6bcad8c6,Question,6,0,politics,NULL,How worried are you about bombs being sent to government officials?,very worried,NULL,4271
# Columns below this comment are as follows:
# 1. Time results were received.
# 2. MD5 hash of participant's IP address.
# 3. Controller name.
# 4. Item number.
# 5. Element number.
# 6. Type.
# 7. Group.
# 8. Field name.
# 9. Field value.
1567189411,6923ad253fa7702b5af1b19e6bcad8c6,Form,8,0,subj_info,NULL,year,1989
1567189411,6923ad253fa7702b5af1b19e6bcad8c6,Form,8,0,subj_info,NULL,language,English
1567189411,6923ad253fa7702b5af1b19e6bcad8c6,Form,8,0,subj_info,NULL,idturk,A26FC0H9JNICC7
1567189411,6923ad253fa7702b5af1b19e6bcad8c6,Form,8,0,subj_info,NULL,comment,
1567189411,6923ad253fa7702b5af1b19e6bcad8c6,Form,8,0,subj_info,NULL,sex,male
1567189411,6923ad253fa7702b5af1b19e6bcad8c6,Form,8,0,subj_info,NULL,politics,republican
1567189411,6923ad253fa7702b5af1b19e6bcad8c6,Form,8,0,subj_info,NULL,_REACTION_TIME_,23498
#
# Results on Friday August 30 2019 18:23:34 UTC.
# USER AGENT: Mozilla/5.0 (Windows NT 10.0; Win64; x64) AppleWebKit/537.36 (KHTML, like Gecko) Chrome/76.0.3809.132 Safari/537.36
# Design number was non-random = 34
#
# Columns below this comment are as follows:
# 1. Time results were received.
# 2. MD5 hash of participant's IP address.
# 3. Controller name.
# 4. Item number.
# 5. Element number.
# 6. Type.
# 7. Group.
# 8. Field name.
# 9. Field value.
1567189414,8e2df1b4334f4854452ea66d28a77320,Form,3,0,consent,NULL,,yes
1567189414,8e2df1b4334f4854452ea66d28a77320,Form,3,0,consent,NULL,_REACTION_TIME_,58555
1567189414,8e2df1b4334f4854452ea66d28a77320,Form,4,0,instructions,NULL,_REACTION_TIME_,1802
1567189414,8e2df1b4334f4854452ea66d28a77320,Form,5,0,story,7,_REACTION_TIME_,20093
# Columns below this comment are as follows:
# 1. Time results were received.
# 2. MD5 hash of participant's IP address.
# 3. Controller name.
# 4. Item number.
# 5. Element number.
# 6. Type.
# 7. Group.
# 8. Question (NULL if none).
# 9. Answer.
# 10. Whether or not answer was correct (NULL if N/A).
# 11. Time taken to answer.
1567189414,8e2df1b4334f4854452ea66d28a77320,Question,5,1,story,7,What does John think is in the box?,a bomb,1,3173
1567189414,8e2df1b4334f4854452ea66d28a77320,Question,5,2,story,7,What was really in the box?,a pillow,0,1334
1567189414,8e2df1b4334f4854452ea66d28a77320,Question,5,3,story,7,Was John right about that?,no,1,2944
1567189414,8e2df1b4334f4854452ea66d28a77320,Question,6,0,politics,NULL,How worried are you about bombs being sent to government officials?,a little worried,NULL,5638
1567189414,8e2df1b4334f4854452ea66d28a77320,Question,7,0,politics,NULL,How worried are you about taxpayer money being wasted?,not at all worried,NULL,2631
# Columns below this comment are as follows:
# 1. Time results were received.
# 2. MD5 hash of participant's IP address.
# 3. Controller name.
# 4. Item number.
# 5. Element number.
# 6. Type.
# 7. Group.
# 8. Field name.
# 9. Field value.
1567189414,8e2df1b4334f4854452ea66d28a77320,Form,8,0,subj_info,NULL,year,1991
1567189414,8e2df1b4334f4854452ea66d28a77320,Form,8,0,subj_info,NULL,language,English
1567189414,8e2df1b4334f4854452ea66d28a77320,Form,8,0,subj_info,NULL,idturk,A1WYQLEXJH6BZK
1567189414,8e2df1b4334f4854452ea66d28a77320,Form,8,0,subj_info,NULL,comment,
1567189414,8e2df1b4334f4854452ea66d28a77320,Form,8,0,subj_info,NULL,sex,female
1567189414,8e2df1b4334f4854452ea66d28a77320,Form,8,0,subj_info,NULL,politics,democrat
1567189414,8e2df1b4334f4854452ea66d28a77320,Form,8,0,subj_info,NULL,_REACTION_TIME_,30874
#
# Results on Friday August 30 2019 18:25:49 UTC.
# USER AGENT: Mozilla/5.0 (Windows NT 10.0; WOW64) AppleWebKit/537.36 (KHTML, like Gecko) Chrome/76.0.3809.132 Safari/537.36
# Design number was non-random = 35
#
# Columns below this comment are as follows:
# 1. Time results were received.
# 2. MD5 hash of participant's IP address.
# 3. Controller name.
# 4. Item number.
# 5. Element number.
# 6. Type.
# 7. Group.
# 8. Field name.
# 9. Field value.
1567189549,51b6708443174e33c33dd784845e6243,Form,3,0,consent,NULL,,yes
1567189549,51b6708443174e33c33dd784845e6243,Form,3,0,consent,NULL,_REACTION_TIME_,25360
1567189549,51b6708443174e33c33dd784845e6243,Form,4,0,instructions,NULL,_REACTION_TIME_,7107
1567189549,51b6708443174e33c33dd784845e6243,Form,5,0,story,7,_REACTION_TIME_,39291
# Columns below this comment are as follows:
# 1. Time results were received.
# 2. MD5 hash of participant's IP address.
# 3. Controller name.
# 4. Item number.
# 5. Element number.
# 6. Type.
# 7. Group.
# 8. Question (NULL if none).
# 9. Answer.
# 10. Whether or not answer was correct (NULL if N/A).
# 11. Time taken to answer.
1567189549,51b6708443174e33c33dd784845e6243,Question,5,1,story,7,What does John think is in the box?,a bomb,1,5761
1567189549,51b6708443174e33c33dd784845e6243,Question,5,2,story,7,What was really in the box?,a pillow,0,4061
1567189549,51b6708443174e33c33dd784845e6243,Question,5,3,story,7,Was John right about that?,no,1,4768
1567189549,51b6708443174e33c33dd784845e6243,Question,6,0,politics,NULL,How worried are you about bombs being sent to government officials?,very worried,NULL,5258
1567189549,51b6708443174e33c33dd784845e6243,Question,7,0,politics,NULL,How worried are you about taxpayer money being wasted?,very worried,NULL,4290
# Columns below this comment are as follows:
# 1. Time results were received.
# 2. MD5 hash of participant's IP address.
# 3. Controller name.
# 4. Item number.
# 5. Element number.
# 6. Type.
# 7. Group.
# 8. Field name.
# 9. Field value.
1567189549,51b6708443174e33c33dd784845e6243,Form,8,0,subj_info,NULL,year,1972
1567189549,51b6708443174e33c33dd784845e6243,Form,8,0,subj_info,NULL,language,English
1567189549,51b6708443174e33c33dd784845e6243,Form,8,0,subj_info,NULL,idturk,A22UUVL27L2WU1
1567189549,51b6708443174e33c33dd784845e6243,Form,8,0,subj_info,NULL,comment,none
1567189549,51b6708443174e33c33dd784845e6243,Form,8,0,subj_info,NULL,sex,male
1567189549,51b6708443174e33c33dd784845e6243,Form,8,0,subj_info,NULL,politics,republican
1567189549,51b6708443174e33c33dd784845e6243,Form,8,0,subj_info,NULL,_REACTION_TIME_,52810
#
# Results on Friday August 30 2019 18:26:11 UTC.
# USER AGENT: Mozilla/5.0 (Windows NT 10.0; Win64; x64) AppleWebKit/537.36 (KHTML, like Gecko) Chrome/76.0.3809.132 Safari/537.36
# Design number was non-random = 37
#
# Columns below this comment are as follows:
# 1. Time results were received.
# 2. MD5 hash of participant's IP address.
# 3. Controller name.
# 4. Item number.
# 5. Element number.
# 6. Type.
# 7. Group.
# 8. Field name.
# 9. Field value.
1567189571,b1518c05b5e1123d28a6b2ac04519722,Form,3,0,consent,NULL,,yes
1567189571,b1518c05b5e1123d28a6b2ac04519722,Form,3,0,consent,NULL,_REACTION_TIME_,8621
1567189571,b1518c05b5e1123d28a6b2ac04519722,Form,4,0,instructions,NULL,_REACTION_TIME_,4156
1567189571,b1518c05b5e1123d28a6b2ac04519722,Form,5,0,story,7,_REACTION_TIME_,32855
# Columns below this comment are as follows:
# 1. Time results were received.
# 2. MD5 hash of participant's IP address.
# 3. Controller name.
# 4. Item number.
# 5. Element number.
# 6. Type.
# 7. Group.
# 8. Question (NULL if none).
# 9. Answer.
# 10. Whether or not answer was correct (NULL if N/A).
# 11. Time taken to answer.
1567189571,b1518c05b5e1123d28a6b2ac04519722,Question,5,1,story,7,What does John think is in the box?,a bomb,1,3581
1567189571,b1518c05b5e1123d28a6b2ac04519722,Question,5,2,story,7,What was really in the box?,a pillow,0,1526
1567189571,b1518c05b5e1123d28a6b2ac04519722,Question,5,3,story,7,Was John right about that?,no,1,2743
