#
# Results on Friday August 30 2019 18:01:31 UTC.
# USER AGENT: Mozilla/5.0 (Windows NT 6.1; Win64; x64) AppleWebKit/537.36 (KHTML, like Gecko) Chrome/76.0.3809.132 Safari/537.36
# Design number was non-random = 0
#
# Columns below this comment are as follows:
# 1. Time results were received.
# 2. MD5 hash of participant's IP address.
# 3. Controller name.
# 4. Item number.
# 5. Element number.
# 6. Type.
# 7. Group.
# 8. Field name.
# 9. Field value.
1567188092,e97d198f129ffd1652c7899dff1cd059,Form,3,0,consent,NULL,,yes
1567188092,e97d198f129ffd1652c7899dff1cd059,Form,3,0,consent,NULL,_REACTION_TIME_,1972
1567188092,e97d198f129ffd1652c7899dff1cd059,Form,4,0,instructions,NULL,_REACTION_TIME_,1282
1567188092,e97d198f129ffd1652c7899dff1cd059,Form,5,0,story,10,_REACTION_TIME_,2188
# Columns below this comment are as follows:
# 1. Time results were received.
# 2. MD5 hash of participant's IP address.
# 3. Controller name.
# 4. Item number.
# 5. Element number.
# 6. Type.
# 7. Group.
# 8. Question (NULL if none).
# 9. Answer.
# 10. Whether or not answer was correct (NULL if N/A).
# 11. Time taken to answer.
1567188092,e97d198f129ffd1652c7899dff1cd059,Question,5,1,story,10,What's in the box%2C according to Mary?,a bomb,1,1886
1567188092,e97d198f129ffd1652c7899dff1cd059,Question,5,2,story,10,What was really in the box?,a pillow,0,5458
1567188092,e97d198f129ffd1652c7899dff1cd059,Question,5,3,story,10,Was Mary right about that?,yes,0,1484
1567188092,e97d198f129ffd1652c7899dff1cd059,Question,6,0,politics,NULL,How worried are you about bombs being sent to government officials?,not at all worried,NULL,1572
1567188092,e97d198f129ffd1652c7899dff1cd059,Question,7,0,politics,NULL,How worried are you about taxpayer money being wasted?,not at all worried,NULL,736
# Columns below this comment are as follows:
# 1. Time results were received.
# 2. MD5 hash of participant's IP address.
# 3. Controller name.
# 4. Item number.
# 5. Element number.
# 6. Type.
# 7. Group.
# 8. Field name.
# 9. Field value.
1567188092,e97d198f129ffd1652c7899dff1cd059,Form,8,0,subj_info,NULL,year,1989
1567188092,e97d198f129ffd1652c7899dff1cd059,Form,8,0,subj_info,NULL,language,en
1567188092,e97d198f129ffd1652c7899dff1cd059,Form,8,0,subj_info,NULL,idturk,A1N4P4XGQM7NXE
1567188092,e97d198f129ffd1652c7899dff1cd059,Form,8,0,subj_info,NULL,comment,
1567188092,e97d198f129ffd1652c7899dff1cd059,Form,8,0,subj_info,NULL,sex,male
1567188092,e97d198f129ffd1652c7899dff1cd059,Form,8,0,subj_info,NULL,politics,other
1567188092,e97d198f129ffd1652c7899dff1cd059,Form,8,0,subj_info,NULL,_REACTION_TIME_,7416
#
# Results on Friday August 30 2019 18:01:44 UTC.
# USER AGENT: Mozilla/5.0 (Macintosh; Intel Mac OS X 10_12_6) AppleWebKit/537.36 (KHTML, like Gecko) Chrome/76.0.3809.100 Safari/537.36
# Design number was non-random = 0
#
# Columns below this comment are as follows:
# 1. Time results were received.
# 2. MD5 hash of participant's IP address.
# 3. Controller name.
# 4. Item number.
# 5. Element number.
# 6. Type.
# 7. Group.
# 8. Field name.
# 9. Field value.
1567188105,ba2a58ebe6d3e5b68362ac5d3c2f406b,Form,3,0,consent,NULL,,yes
1567188105,ba2a58ebe6d3e5b68362ac5d3c2f406b,Form,3,0,consent,NULL,_REACTION_TIME_,2846
1567188105,ba2a58ebe6d3e5b68362ac5d3c2f406b,Form,4,0,instructions,NULL,_REACTION_TIME_,21980
1567188105,ba2a58ebe6d3e5b68362ac5d3c2f406b,Form,5,0,story,10,_REACTION_TIME_,8338
# Columns below this comment are as follows:
# 1. Time results were received.
# 2. MD5 hash of participant's IP address.
# 3. Controller name.
# 4. Item number.
# 5. Element number.
# 6. Type.
# 7. Group.
# 8. Question (NULL if none).
# 9. Answer.
# 10. Whether or not answer was correct (NULL if N/A).
# 11. Time taken to answer.
1567188105,ba2a58ebe6d3e5b68362ac5d3c2f406b,Question,5,1,story,10,What's in the box%2C according to Mary?,a bomb,1,1864
1567188105,ba2a58ebe6d3e5b68362ac5d3c2f406b,Question,5,2,story,10,What was really in the box?,a pillow,0,886
1567188105,ba2a58ebe6d3e5b68362ac5d3c2f406b,Question,5,3,story,10,Was Mary right about that?,no,1,1377
1567188105,ba2a58ebe6d3e5b68362ac5d3c2f406b,Question,7,0,politics,NULL,How worried are you about taxpayer money being wasted?,a little worried,NULL,3250
1567188105,ba2a58ebe6d3e5b68362ac5d3c2f406b,Question,6,0,politics,NULL,How worried are you about bombs being sent to government officials?,a little worried,NULL,1783
# Columns below this comment are as follows:
# 1. Time results were received.
# 2. MD5 hash of participant's IP address.
# 3. Controller name.
# 4. Item number.
# 5. Element number.
# 6. Type.
# 7. Group.
# 8. Field name.
# 9. Field value.
1567188105,ba2a58ebe6d3e5b68362ac5d3c2f406b,Form,8,0,subj_info,NULL,year,1993
1567188105,ba2a58ebe6d3e5b68362ac5d3c2f406b,Form,8,0,subj_info,NULL,language,English
1567188105,ba2a58ebe6d3e5b68362ac5d3c2f406b,Form,8,0,subj_info,NULL,idturk,AWEPZMK7825JQ
1567188105,ba2a58ebe6d3e5b68362ac5d3c2f406b,Form,8,0,subj_info,NULL,comment,
1567188105,ba2a58ebe6d3e5b68362ac5d3c2f406b,Form,8,0,subj_info,NULL,sex,female
1567188105,ba2a58ebe6d3e5b68362ac5d3c2f406b,Form,8,0,subj_info,NULL,politics,democrat
1567188105,ba2a58ebe6d3e5b68362ac5d3c2f406b,Form,8,0,subj_info,NULL,_REACTION_TIME_,14574
#
# Results on Friday August 30 2019 18:02:07 UTC.
# USER AGENT: Mozilla/5.0 (Macintosh; Intel Mac OS X 10_11_6) AppleWebKit/537.36 (KHTML, like Gecko) Chrome/76.0.3809.100 Safari/537.36
# Design number was non-random = 0
#
# Columns below this comment are as follows:
# 1. Time results were received.
# 2. MD5 hash of participant's IP address.
# 3. Controller name.
# 4. Item number.
# 5. Element number.
# 6. Type.
# 7. Group.
# 8. Field name.
# 9. Field value.
1567188128,bd938f62382ce5d4cc75ef0fa371321b,Form,3,0,consent,NULL,,yes
1567188128,bd938f62382ce5d4cc75ef0fa371321b,Form,3,0,consent,NULL,_REACTION_TIME_,2968
1567188128,bd938f62382ce5d4cc75ef0fa371321b,Form,4,0,instructions,NULL,_REACTION_TIME_,1542
1567188128,bd938f62382ce5d4cc75ef0fa371321b,Form,5,0,story,10,_REACTION_TIME_,10311
# Columns below this comment are as follows:
# 1. Time results were received.
# 2. MD5 hash of participant's IP address.
# 3. Controller name.
# 4. Item number.
# 5. Element number.
# 6. Type.
# 7. Group.
# 8. Question (NULL if none).
# 9. Answer.
# 10. Whether or not answer was correct (NULL if N/A).
# 11. Time taken to answer.
1567188128,bd938f62382ce5d4cc75ef0fa371321b,Question,5,1,story,10,What's in the box%2C according to Mary?,a bomb,1,2900
1567188128,bd938f62382ce5d4cc75ef0fa371321b,Question,5,2,story,10,What was really in the box?,a pillow,0,1612
1567188128,bd938f62382ce5d4cc75ef0fa371321b,Question,5,3,story,10,Was Mary right about that?,no,1,2603
1567188128,bd938f62382ce5d4cc75ef0fa371321b,Question,7,0,politics,NULL,How worried are you about taxpayer money being wasted?,a little worried,NULL,2549
1567188128,bd938f62382ce5d4cc75ef0fa371321b,Question,6,0,politics,NULL,How worried are you about bombs being sent to government officials?,not at all worried,NULL,2837
# Columns below this comment are as follows:
# 1. Time results were received.
# 2. MD5 hash of participant's IP address.
# 3. Controller name.
# 4. Item number.
# 5. Element number.
# 6. Type.
# 7. Group.
# 8. Field name.
# 9. Field value.
1567188128,bd938f62382ce5d4cc75ef0fa371321b,Form,8,0,subj_info,NULL,year,1994
1567188128,bd938f62382ce5d4cc75ef0fa371321b,Form,8,0,subj_info,NULL,language,English
1567188128,bd938f62382ce5d4cc75ef0fa371321b,Form,8,0,subj_info,NULL,idturk,A3JNSBGUKVX3D7
1567188128,bd938f62382ce5d4cc75ef0fa371321b,Form,8,0,subj_info,NULL,comment,
1567188128,bd938f62382ce5d4cc75ef0fa371321b,Form,8,0,subj_info,NULL,sex,male
1567188128,bd938f62382ce5d4cc75ef0fa371321b,Form,8,0,subj_info,NULL,politics,republican
1567188128,bd938f62382ce5d4cc75ef0fa371321b,Form,8,0,subj_info,NULL,_REACTION_TIME_,17295
#
# Results on Friday August 30 2019 18:02:26 UTC.
# USER AGENT: Mozilla/5.0 (Windows NT 10.0; Win64; x64) AppleWebKit/537.36 (KHTML, like Gecko) Chrome/76.0.3809.100 Safari/537.36 OPR/63.0.3368.53
# Design number was non-random = 0
#
# Columns below this comment are as follows:
# 1. Time results were received.
# 2. MD5 hash of participant's IP address.
# 3. Controller name.
# 4. Item number.
# 5. Element number.
# 6. Type.
# 7. Group.
# 8. Field name.
# 9. Field value.
1567188147,9d7a60eb61502c863494413a5ef96a9d,Form,3,0,consent,NULL,,yes
1567188147,9d7a60eb61502c863494413a5ef96a9d,Form,3,0,consent,NULL,_REACTION_TIME_,4448
1567188147,9d7a60eb61502c863494413a5ef96a9d,Form,4,0,instructions,NULL,_REACTION_TIME_,1260
1567188147,9d7a60eb61502c863494413a5ef96a9d,Form,5,0,story,10,_REACTION_TIME_,10394
# Columns below this comment are as follows:
# 1. Time results were received.
# 2. MD5 hash of participant's IP address.
# 3. Controller name.
# 4. Item number.
# 5. Element number.
# 6. Type.
# 7. Group.
# 8. Question (NULL if none).
# 9. Answer.
# 10. Whether or not answer was correct (NULL if N/A).
# 11. Time taken to answer.
1567188147,9d7a60eb61502c863494413a5ef96a9d,Question,5,1,story,10,What's in the box%2C according to Mary?,a bomb,1,3120
1567188147,9d7a60eb61502c863494413a5ef96a9d,Question,5,2,story,10,What was really in the box?,a pillow,0,1597
1567188147,9d7a60eb61502c863494413a5ef96a9d,Question,5,3,story,10,Was Mary right about that?,no,1,3998
1567188147,9d7a60eb61502c863494413a5ef96a9d,Question,7,0,politics,NULL,How worried are you about taxpayer money being wasted?,a little worried,NULL,5686
1567188147,9d7a60eb61502c863494413a5ef96a9d,Question,6,0,politics,NULL,How worried are you about bombs being sent to government officials?,a little worried,NULL,2782
# Columns below this comment are as follows:
# 1. Time results were received.
# 2. MD5 hash of participant's IP address.
# 3. Controller name.
# 4. Item number.
# 5. Element number.
# 6. Type.
# 7. Group.
# 8. Field name.
# 9. Field value.
1567188147,9d7a60eb61502c863494413a5ef96a9d,Form,8,0,subj_info,NULL,year,1992
1567188147,9d7a60eb61502c863494413a5ef96a9d,Form,8,0,subj_info,NULL,language,English
1567188147,9d7a60eb61502c863494413a5ef96a9d,Form,8,0,subj_info,NULL,idturk,A28XY45P295UQM
1567188147,9d7a60eb61502c863494413a5ef96a9d,Form,8,0,subj_info,NULL,comment,
1567188147,9d7a60eb61502c863494413a5ef96a9d,Form,8,0,subj_info,NULL,sex,male
1567188147,9d7a60eb61502c863494413a5ef96a9d,Form,8,0,subj_info,NULL,politics,democrat
1567188147,9d7a60eb61502c863494413a5ef96a9d,Form,8,0,subj_info,NULL,_REACTION_TIME_,23414
#
# Results on Friday August 30 2019 18:02:39 UTC.
# USER AGENT: Mozilla/5.0 (Windows NT 6.3; Win64; x64) AppleWebKit/537.36 (KHTML, like Gecko) Chrome/76.0.3809.132 Safari/537.36
# Design number was non-random = 0
#
# Columns below this comment are as follows:
# 1. Time results were received.
# 2. MD5 hash of participant's IP address.
# 3. Controller name.
# 4. Item number.
# 5. Element number.
# 6. Type.
# 7. Group.
# 8. Field name.
# 9. Field value.
1567188160,56f8aaa50faa96ddcf01fc4f100dc80b,Form,3,0,consent,NULL,,yes
1567188160,56f8aaa50faa96ddcf01fc4f100dc80b,Form,3,0,consent,NULL,_REACTION_TIME_,14750
1567188160,56f8aaa50faa96ddcf01fc4f100dc80b,Form,4,0,instructions,NULL,_REACTION_TIME_,4122
1567188160,56f8aaa50faa96ddcf01fc4f100dc80b,Form,5,0,story,10,_REACTION_TIME_,26791
# Columns below this comment are as follows:
# 1. Time results were received.
# 2. MD5 hash of participant's IP address.
# 3. Controller name.
# 4. Item number.
# 5. Element number.
# 6. Type.
# 7. Group.
# 8. Question (NULL if none).
# 9. Answer.
# 10. Whether or not answer was correct (NULL if N/A).
# 11. Time taken to answer.
1567188160,56f8aaa50faa96ddcf01fc4f100dc80b,Question,5,1,story,10,What's in the box%2C according to Mary?,a bomb,1,9861
1567188160,56f8aaa50faa96ddcf01fc4f100dc80b,Question,5,2,story,10,What was really in the box?,a pillow,0,16429
1567188160,56f8aaa50faa96ddcf01fc4f100dc80b,Question,5,3,story,10,Was Mary right about that?,no,1,9774
1567188160,56f8aaa50faa96ddcf01fc4f100dc80b,Question,6,0,politics,NULL,How worried are you about bombs being sent to government officials?,a little worried,NULL,13438
1567188160,56f8aaa50faa96ddcf01fc4f100dc80b,Question,7,0,politics,NULL,How worried are you about taxpayer money being wasted?,not at all worried,NULL,5055
# Columns below this comment are as follows:
# 1. Time results were received.
# 2. MD5 hash of participant's IP address.
# 3. Controller name.
# 4. Item number.
# 5. Element number.
# 6. Type.
# 7. Group.
# 8. Field name.
# 9. Field value.
1567188160,56f8aaa50faa96ddcf01fc4f100dc80b,Form,8,0,subj_info,NULL,year,1999
1567188160,56f8aaa50faa96ddcf01fc4f100dc80b,Form,8,0,subj_info,NULL,language,English
1567188160,56f8aaa50faa96ddcf01fc4f100dc80b,Form,8,0,subj_info,NULL,idturk,AEPITKAWZ6FCT
1567188160,56f8aaa50faa96ddcf01fc4f100dc80b,Form,8,0,subj_info,NULL,comment,
1567188160,56f8aaa50faa96ddcf01fc4f100dc80b,Form,8,0,subj_info,NULL,sex,male
1567188160,56f8aaa50faa96ddcf01fc4f100dc80b,Form,8,0,subj_info,NULL,politics,democrat
1567188160,56f8aaa50faa96ddcf01fc4f100dc80b,Form,8,0,subj_info,NULL,_REACTION_TIME_,22063
#
# Results on Friday August 30 2019 18:03:07 UTC.
# USER AGENT: Mozilla/5.0 (Windows NT 6.1; Win64; x64) AppleWebKit/537.36 (KHTML, like Gecko) Chrome/76.0.3809.100 Safari/537.36
# Design number was non-random = 2
#
# Columns below this comment are as follows:
# 1. Time results were received.
# 2. MD5 hash of participant's IP address.
# 3. Controller name.
# 4. Item number.
# 5. Element number.
# 6. Type.
# 7. Group.
# 8. Field name.
# 9. Field value.
1567188187,136ad00ae3c20ea62857a082e8ee7184,Form,3,0,consent,NULL,,yes
1567188187,136ad00ae3c20ea62857a082e8ee7184,Form,3,0,consent,NULL,_REACTION_TIME_,6424
1567188187,136ad00ae3c20ea62857a082e8ee7184,Form,4,0,instructions,NULL,_REACTION_TIME_,2213
1567188187,136ad00ae3c20ea62857a082e8ee7184,Form,5,0,story,10,_REACTION_TIME_,18353
# Columns below this comment are as follows:
# 1. Time results were received.
# 2. MD5 hash of participant's IP address.
# 3. Controller name.
# 4. Item number.
# 5. Element number.
# 6. Type.
# 7. Group.
# 8. Question (NULL if none).
# 9. Answer.
# 10. Whether or not answer was correct (NULL if N/A).
# 11. Time taken to answer.
1567188187,136ad00ae3c20ea62857a082e8ee7184,Question,5,1,story,10,What's in the box%2C according to Mary?,a bomb,1,3188
1567188187,136ad00ae3c20ea62857a082e8ee7184,Question,5,2,story,10,What was really in the box?,a pillow,0,1360
1567188187,136ad00ae3c20ea62857a082e8ee7184,Question,5,3,story,10,Was Mary right about that?,no,1,2507
1567188187,136ad00ae3c20ea62857a082e8ee7184,Question,6,0,politics,NULL,How worried are you about bombs being sent to government officials?,very worried,NULL,7335
1567188187,136ad00ae3c20ea62857a082e8ee7184,Question,7,0,politics,NULL,How worried are you about taxpayer money being wasted?,a little worried,NULL,3551
# Columns below this comment are as follows:
# 1. Time results were received.
# 2. MD5 hash of participant's IP address.
# 3. Controller name.
# 4. Item number.
# 5. Element number.
# 6. Type.
# 7. Group.
# 8. Field name.
# 9. Field value.
1567188187,136ad00ae3c20ea62857a082e8ee7184,Form,8,0,subj_info,NULL,year,1954
1567188187,136ad00ae3c20ea62857a082e8ee7184,Form,8,0,subj_info,NULL,language,English
1567188187,136ad00ae3c20ea62857a082e8ee7184,Form,8,0,subj_info,NULL,idturk,A3DFL72CC0P7UE
1567188187,136ad00ae3c20ea62857a082e8ee7184,Form,8,0,subj_info,NULL,comment,all good
1567188187,136ad00ae3c20ea62857a082e8ee7184,Form,8,0,subj_info,NULL,sex,male
1567188187,136ad00ae3c20ea62857a082e8ee7184,Form,8,0,subj_info,NULL,politics,democrat
1567188187,136ad00ae3c20ea62857a082e8ee7184,Form,8,0,subj_info,NULL,_REACTION_TIME_,25283
#
# Results on Friday August 30 2019 18:03:22 UTC.
# USER AGENT: Mozilla/5.0 (iPhone; CPU iPhone OS 12_4 like Mac OS X) AppleWebKit/605.1.15 (KHTML, like Gecko) Version/12.1.2 Mobile/15E148 Safari/604.1
# Design number was non-random = 3
#
# Columns below this comment are as follows:
# 1. Time results were received.
# 2. MD5 hash of participant's IP address.
# 3. Controller name.
# 4. Item number.
# 5. Element number.
# 6. Type.
# 7. Group.
# 8. Field name.
# 9. Field value.
1567188203,5f6e022e2e4582fe4cca4ae3aa071558,Form,3,0,consent,NULL,,yes
1567188203,5f6e022e2e4582fe4cca4ae3aa071558,Form,3,0,consent,NULL,_REACTION_TIME_,3341
1567188203,5f6e022e2e4582fe4cca4ae3aa071558,Form,4,0,instructions,NULL,_REACTION_TIME_,2478
1567188203,5f6e022e2e4582fe4cca4ae3aa071558,Form,5,0,story,10,_REACTION_TIME_,24581
# Columns below this comment are as follows:
# 1. Time results were received.
# 2. MD5 hash of participant's IP address.
# 3. Controller name.
# 4. Item number.
# 5. Element number.
# 6. Type.
# 7. Group.
# 8. Question (NULL if none).
# 9. Answer.
# 10. Whether or not answer was correct (NULL if N/A).
# 11. Time taken to answer.
1567188203,5f6e022e2e4582fe4cca4ae3aa071558,Question,5,1,story,10,What's in the box%2C according to Mary?,a pillow,0,3435
1567188203,5f6e022e2e4582fe4cca4ae3aa071558,Question,5,2,story,10,What was really in the box?,a pillow,0,3031
1567188203,5f6e022e2e4582fe4cca4ae3aa071558,Question,5,3,story,10,Was Mary right about that?,yes,0,3544
1567188203,5f6e022e2e4582fe4cca4ae3aa071558,Question,7,0,politics,NULL,How worried are you about taxpayer money being wasted?,not at all worried,NULL,6474
1567188203,5f6e022e2e4582fe4cca4ae3aa071558,Question,6,0,politics,NULL,How worried are you about bombs being sent to government officials?,very worried,NULL,324
# Columns below this comment are as follows:
# 1. Time results were received.
# 2. MD5 hash of participant's IP address.
# 3. Controller name.
# 4. Item number.
# 5. Element number.
# 6. Type.
# 7. Group.
# 8. Field name.
# 9. Field value.
1567188203,5f6e022e2e4582fe4cca4ae3aa071558,Form,8,0,subj_info,NULL,year,1997
1567188203,5f6e022e2e4582fe4cca4ae3aa071558,Form,8,0,subj_info,NULL,language,English
1567188203,5f6e022e2e4582fe4cca4ae3aa071558,Form,8,0,subj_info,NULL,idturk,A35IT4GHURUWK7
1567188203,5f6e022e2e4582fe4cca4ae3aa071558,Form,8,0,subj_info,NULL,comment,
1567188203,5f6e022e2e4582fe4cca4ae3aa071558,Form,8,0,subj_info,NULL,sex,female
1567188203,5f6e022e2e4582fe4cca4ae3aa071558,Form,8,0,subj_info,NULL,politics,republican
1567188203,5f6e022e2e4582fe4cca4ae3aa071558,Form,8,0,subj_info,NULL,_REACTION_TIME_,21090
#
# Results on Friday August 30 2019 18:03:33 UTC.
# USER AGENT: Mozilla/5.0 (Macintosh; Intel Mac OS X 10_11_2) AppleWebKit/537.36 (KHTML, like Gecko) Chrome/74.0.3729.169 Safari/537.36
# Design number was non-random = 4
#
# Columns below this comment are as follows:
# 1. Time results were received.
# 2. MD5 hash of participant's IP address.
# 3. Controller name.
# 4. Item number.
# 5. Element number.
# 6. Type.
# 7. Group.
# 8. Field name.
# 9. Field value.
1567188213,503894a661ee553aeb5b97ce01869e3e,Form,3,0,consent,NULL,,yes
1567188213,503894a661ee553aeb5b97ce01869e3e,Form,3,0,consent,NULL,_REACTION_TIME_,12173
1567188213,503894a661ee553aeb5b97ce01869e3e,Form,4,0,instructions,NULL,_REACTION_TIME_,2061
1567188213,503894a661ee553aeb5b97ce01869e3e,Form,5,0,story,10,_REACTION_TIME_,16892
# Columns below this comment are as follows:
# 1. Time results were received.
# 2. MD5 hash of participant's IP address.
# 3. Controller name.
# 4. Item number.
# 5. Element number.
# 6. Type.
# 7. Group.
# 8. Question (NULL if none).
# 9. Answer.
# 10. Whether or not answer was correct (NULL if N/A).
# 11. Time taken to answer.
1567188213,503894a661ee553aeb5b97ce01869e3e,Question,5,1,story,10,What's in the box%2C according to Mary?,a bomb,1,2409
1567188213,503894a661ee553aeb5b97ce01869e3e,Question,5,2,story,10,What was really in the box?,a pillow,0,1035
1567188213,503894a661ee553aeb5b97ce01869e3e,Question,5,3,story,10,Was Mary right about that?,no,1,2084
1567188213,503894a661ee553aeb5b97ce01869e3e,Question,6,0,politics,NULL,How worried are you about bombs being sent to government officials?,a little worried,NULL,2797
1567188213,503894a661ee553aeb5b97ce01869e3e,Question,7,0,politics,NULL,How worried are you about taxpayer money being wasted?,very worried,NULL,2197
# Columns below this comment are as follows:
# 1. Time results were received.
# 2. MD5 hash of participant's IP address.
# 3. Controller name.
# 4. Item number.
# 5. Element number.
# 6. Type.
# 7. Group.
# 8. Field name.
# 9. Field value.
1567188213,503894a661ee553aeb5b97ce01869e3e,Form,8,0,subj_info,NULL,year,1989
1567188213,503894a661ee553aeb5b97ce01869e3e,Form,8,0,subj_info,NULL,language,English
1567188213,503894a661ee553aeb5b97ce01869e3e,Form,8,0,subj_info,NULL,idturk,A2D9V2OIM57QEL
1567188213,503894a661ee553aeb5b97ce01869e3e,Form,8,0,subj_info,NULL,comment,n/a
1567188213,503894a661ee553aeb5b97ce01869e3e,Form,8,0,subj_info,NULL,sex,female
1567188213,503894a661ee553aeb5b97ce01869e3e,Form,8,0,subj_info,NULL,politics,democrat
1567188213,503894a661ee553aeb5b97ce01869e3e,Form,8,0,subj_info,NULL,_REACTION_TIME_,18548
#
# Results on Friday August 30 2019 18:04:13 UTC.
# USER AGENT: Mozilla/5.0 (X11; CrOS x86_64 12239.67.1) AppleWebKit/537.36 (KHTML, like Gecko) Chrome/76.0.3809.102 Safari/537.36
# Design number was non-random = 5
#
# Columns below this comment are as follows:
# 1. Time results were received.
# 2. MD5 hash of participant's IP address.
# 3. Controller name.
# 4. Item number.
# 5. Element number.
# 6. Type.
# 7. Group.
# 8. Field name.
# 9. Field value.
1567188253,67c04121a72c1ef314196bf732bfa4af,Form,3,0,consent,NULL,,yes
1567188253,67c04121a72c1ef314196bf732bfa4af,Form,3,0,consent,NULL,_REACTION_TIME_,6864
1567188253,67c04121a72c1ef314196bf732bfa4af,Form,4,0,instructions,NULL,_REACTION_TIME_,4509
1567188253,67c04121a72c1ef314196bf732bfa4af,Form,5,0,story,10,_REACTION_TIME_,20455
# Columns below this comment are as follows:
# 1. Time results were received.
# 2. MD5 hash of participant's IP address.
# 3. Controller name.
# 4. Item number.
# 5. Element number.
# 6. Type.
# 7. Group.
# 8. Question (NULL if none).
# 9. Answer.
# 10. Whether or not answer was correct (NULL if N/A).
# 11. Time taken to answer.
1567188253,67c04121a72c1ef314196bf732bfa4af,Question,5,1,story,10,What's in the box%2C according to Mary?,a bomb,1,3811
1567188253,67c04121a72c1ef314196bf732bfa4af,Question,5,2,story,10,What was really in the box?,a pillow,0,2061
1567188253,67c04121a72c1ef314196bf732bfa4af,Question,5,3,story,10,Was Mary right about that?,no,1,8512
1567188253,67c04121a72c1ef314196bf732bfa4af,Question,7,0,politics,NULL,How worried are you about taxpayer money being wasted?,a little worried,NULL,3243
1567188253,67c04121a72c1ef314196bf732bfa4af,Question,6,0,politics,NULL,How worried are you about bombs being sent to government officials?,a little worried,NULL,3674
# Columns below this comment are as follows:
# 1. Time results were received.
# 2. MD5 hash of participant's IP address.
# 3. Controller name.
# 4. Item number.
# 5. Element number.
# 6. Type.
# 7. Group.
# 8. Field name.
# 9. Field value.
1567188253,67c04121a72c1ef314196bf732bfa4af,Form,8,0,subj_info,NULL,year,1959
1567188253,67c04121a72c1ef314196bf732bfa4af,Form,8,0,subj_info,NULL,language,English
1567188253,67c04121a72c1ef314196bf732bfa4af,Form,8,0,subj_info,NULL,idturk,A2MZQAX0V51S7Z
1567188253,67c04121a72c1ef314196bf732bfa4af,Form,8,0,subj_info,NULL,comment,
1567188253,67c04121a72c1ef314196bf732bfa4af,Form,8,0,subj_info,NULL,sex,female
1567188253,67c04121a72c1ef314196bf732bfa4af,Form,8,0,subj_info,NULL,politics,democrat
1567188253,67c04121a72c1ef314196bf732bfa4af,Form,8,0,subj_info,NULL,_REACTION_TIME_,26683
#
# Results on Friday August 30 2019 18:04:29 UTC.
# USER AGENT: Mozilla/5.0 (Macintosh; Intel Mac OS X 10_14_5) AppleWebKit/605.1.15 (KHTML, like Gecko) Version/12.1.1 Safari/605.1.15
# Design number was non-random = 7
#
# Columns below this comment are as follows:
# 1. Time results were received.
# 2. MD5 hash of participant's IP address.
# 3. Controller name.
# 4. Item number.
# 5. Element number.
# 6. Type.
# 7. Group.
# 8. Field name.
# 9. Field value.
1567188269,b86e905651c8ca3d49dc14d89da88198,Form,3,0,consent,NULL,,yes
1567188269,b86e905651c8ca3d49dc14d89da88198,Form,3,0,consent,NULL,_REACTION_TIME_,3175
1567188269,b86e905651c8ca3d49dc14d89da88198,Form,4,0,instructions,NULL,_REACTION_TIME_,2483
1567188269,b86e905651c8ca3d49dc14d89da88198,Form,5,0,story,10,_REACTION_TIME_,17283
# Columns below this comment are as follows:
# 1. Time results were received.
# 2. MD5 hash of participant's IP address.
# 3. Controller name.
# 4. Item number.
# 5. Element number.
# 6. Type.
# 7. Group.
# 8. Question (NULL if none).
# 9. Answer.
# 10. Whether or not answer was correct (NULL if N/A).
# 11. Time taken to answer.
1567188269,b86e905651c8ca3d49dc14d89da88198,Question,5,1,story,10,What's in the box%2C according to Mary?,a bomb,1,3452
1567188269,b86e905651c8ca3d49dc14d89da88198,Question,5,2,story,10,What was really in the box?,a pillow,0,1148
1567188269,b86e905651c8ca3d49dc14d89da88198,Question,5,3,story,10,Was Mary right about that?,no,1,2740
1567188269,b86e905651c8ca3d49dc14d89da88198,Question,7,0,politics,NULL,How worried are you about taxpayer money being wasted?,very worried,NULL,3694
1567188269,b86e905651c8ca3d49dc14d89da88198,Question,6,0,politics,NULL,How worried are you about bombs being sent to government officials?,a little worried,NULL,5596
# Columns below this comment are as follows:
# 1. Time results were received.
# 2. MD5 hash of participant's IP address.
# 3. Controller name.
# 4. Item number.
# 5. Element number.
# 6. Type.
# 7. Group.
# 8. Field name.
# 9. Field value.
1567188269,b86e905651c8ca3d49dc14d89da88198,Form,8,0,subj_info,NULL,year,1988
1567188269,b86e905651c8ca3d49dc14d89da88198,Form,8,0,subj_info,NULL,language,English
1567188269,b86e905651c8ca3d49dc14d89da88198,Form,8,0,subj_info,NULL,idturk,AAI7V9VASGBIY
1567188269,b86e905651c8ca3d49dc14d89da88198,Form,8,0,subj_info,NULL,comment,none
1567188269,b86e905651c8ca3d49dc14d89da88198,Form,8,0,subj_info,NULL,sex,male
1567188269,b86e905651c8ca3d49dc14d89da88198,Form,8,0,subj_info,NULL,politics,other
1567188269,b86e905651c8ca3d49dc14d89da88198,Form,8,0,subj_info,NULL,_REACTION_TIME_,16914
#
# Results on Friday August 30 2019 18:04:33 UTC.
# USER AGENT: Mozilla/5.0 (Macintosh; Intel Mac OS X 10.13; rv:68.0) Gecko/20100101 Firefox/68.0
# Design number was non-random = 6
#
# Columns below this comment are as follows:
# 1. Time results were received.
# 2. MD5 hash of participant's IP address.
# 3. Controller name.
# 4. Item number.
# 5. Element number.
# 6. Type.
# 7. Group.
# 8. Field name.
# 9. Field value.
1567188274,8b1c12c97eeaf150c018311b23a222a4,Form,3,0,consent,NULL,,yes
1567188274,8b1c12c97eeaf150c018311b23a222a4,Form,3,0,consent,NULL,_REACTION_TIME_,23915
1567188274,8b1c12c97eeaf150c018311b23a222a4,Form,4,0,instructions,NULL,_REACTION_TIME_,1212
1567188274,8b1c12c97eeaf150c018311b23a222a4,Form,5,0,story,10,_REACTION_TIME_,23161
# Columns below this comment are as follows:
# 1. Time results were received.
# 2. MD5 hash of participant's IP address.
# 3. Controller name.
# 4. Item number.
# 5. Element number.
# 6. Type.
# 7. Group.
# 8. Question (NULL if none).
# 9. Answer.
# 10. Whether or not answer was correct (NULL if N/A).
# 11. Time taken to answer.
1567188274,8b1c12c97eeaf150c018311b23a222a4,Question,5,1,story,10,What's in the box%2C according to Mary?,a bomb,1,6024
1567188274,8b1c12c97eeaf150c018311b23a222a4,Question,5,2,story,10,What was really in the box?,a pillow,0,5199
1567188274,8b1c12c97eeaf150c018311b23a222a4,Question,5,3,story,10,Was Mary right about that?,no,1,2236
1567188274,8b1c12c97eeaf150c018311b23a222a4,Question,6,0,politics,NULL,How worried are you about bombs being sent to government officials?,not at all worried,NULL,2527
1567188274,8b1c12c97eeaf150c018311b23a222a4,Question,7,0,politics,NULL,How worried are you about taxpayer money being wasted?,not at all worried,NULL,1283
# Columns below this comment are as follows:
# 1. Time results were received.
# 2. MD5 hash of participant's IP address.
# 3. Controller name.
# 4. Item number.
# 5. Element number.
# 6. Type.
# 7. Group.
# 8. Field name.
# 9. Field value.
1567188274,8b1c12c97eeaf150c018311b23a222a4,Form,8,0,subj_info,NULL,year,1973
1567188274,8b1c12c97eeaf150c018311b23a222a4,Form,8,0,subj_info,NULL,language,English
1567188274,8b1c12c97eeaf150c018311b23a222a4,Form,8,0,subj_info,NULL,idturk,A20IA63WXHF683
1567188274,8b1c12c97eeaf150c018311b23a222a4,Form,8,0,subj_info,NULL,comment,
1567188274,8b1c12c97eeaf150c018311b23a222a4,Form,8,0,subj_info,NULL,sex,female
1567188274,8b1c12c97eeaf150c018311b23a222a4,Form,8,0,subj_info,NULL,politics,democrat
1567188274,8b1c12c97eeaf150c018311b23a222a4,Form,8,0,subj_info,NULL,_REACTION_TIME_,15904
#
# Results on Friday August 30 2019 18:05:19 UTC.
# USER AGENT: Mozilla/5.0 (Windows NT 6.0; rv:52.0) Gecko/20100101 Firefox/52.0
# Design number was non-random = 8
#
# Columns below this comment are as follows:
# 1. Time results were received.
# 2. MD5 hash of participant's IP address.
# 3. Controller name.
# 4. Item number.
# 5. Element number.
# 6. Type.
# 7. Group.
# 8. Field name.
# 9. Field value.
1567188319,fb6c0e14a8230077ee0e1e4893997c9e,Form,3,0,consent,NULL,,yes
1567188319,fb6c0e14a8230077ee0e1e4893997c9e,Form,3,0,consent,NULL,_REACTION_TIME_,5630
1567188319,fb6c0e14a8230077ee0e1e4893997c9e,Form,4,0,instructions,NULL,_REACTION_TIME_,3644
1567188319,fb6c0e14a8230077ee0e1e4893997c9e,Form,5,0,story,10,_REACTION_TIME_,30248
# Columns below this comment are as follows:
# 1. Time results were received.
# 2. MD5 hash of participant's IP address.
# 3. Controller name.
# 4. Item number.
# 5. Element number.
# 6. Type.
# 7. Group.
# 8. Question (NULL if none).
# 9. Answer.
# 10. Whether or not answer was correct (NULL if N/A).
# 11. Time taken to answer.
1567188319,fb6c0e14a8230077ee0e1e4893997c9e,Question,5,1,story,10,What's in the box%2C according to Mary?,a bomb,1,3954
1567188319,fb6c0e14a8230077ee0e1e4893997c9e,Question,5,2,story,10,What was really in the box?,a pillow,0,1548
1567188319,fb6c0e14a8230077ee0e1e4893997c9e,Question,5,3,story,10,Was Mary right about that?,no,1,3496
1567188319,fb6c0e14a8230077ee0e1e4893997c9e,Question,6,0,politics,NULL,How worried are you about bombs being sent to government officials?,not at all worried,NULL,4690
1567188319,fb6c0e14a8230077ee0e1e4893997c9e,Question,7,0,politics,NULL,How worried are you about taxpayer money being wasted?,a little worried,NULL,3422
# Columns below this comment are as follows:
# 1. Time results were received.
# 2. MD5 hash of participant's IP address.
# 3. Controller name.
# 4. Item number.
# 5. Element number.
# 6. Type.
# 7. Group.
# 8. Field name.
# 9. Field value.
1567188319,fb6c0e14a8230077ee0e1e4893997c9e,Form,8,0,subj_info,NULL,year,1973
1567188319,fb6c0e14a8230077ee0e1e4893997c9e,Form,8,0,subj_info,NULL,language,English
1567188319,fb6c0e14a8230077ee0e1e4893997c9e,Form,8,0,subj_info,NULL,idturk,A2LV73C1ILVHSM
1567188319,fb6c0e14a8230077ee0e1e4893997c9e,Form,8,0,subj_info,NULL,comment,
1567188319,fb6c0e14a8230077ee0e1e4893997c9e,Form,8,0,subj_info,NULL,sex,male
1567188319,fb6c0e14a8230077ee0e1e4893997c9e,Form,8,0,subj_info,NULL,politics,democrat
1567188319,fb6c0e14a8230077ee0e1e4893997c9e,Form,8,0,subj_info,NULL,_REACTION_TIME_,31072
#
# Results on Friday August 30 2019 18:05:21 UTC.
# USER AGENT: Mozilla/5.0 (Windows NT 10.0; Win64; x64) AppleWebKit/537.36 (KHTML, like Gecko) Chrome/76.0.3809.100 Safari/537.36
# Design number was non-random = 8
#
# Columns below this comment are as follows:
# 1. Time results were received.
# 2. MD5 hash of participant's IP address.
# 3. Controller name.
# 4. Item number.
# 5. Element number.
# 6. Type.
# 7. Group.
# 8. Field name.
# 9. Field value.
1567188322,bf4f9eb45703fca734ebcd83bec860bd,Form,3,0,consent,NULL,,yes
1567188322,bf4f9eb45703fca734ebcd83bec860bd,Form,3,0,consent,NULL,_REACTION_TIME_,8793
1567188322,bf4f9eb45703fca734ebcd83bec860bd,Form,4,0,instructions,NULL,_REACTION_TIME_,41184
1567188322,bf4f9eb45703fca734ebcd83bec860bd,Form,5,0,story,10,_REACTION_TIME_,1273
# Columns below this comment are as follows:
# 1. Time results were received.
# 2. MD5 hash of participant's IP address.
# 3. Controller name.
# 4. Item number.
# 5. Element number.
# 6. Type.
# 7. Group.
# 8. Question (NULL if none).
# 9. Answer.
# 10. Whether or not answer was correct (NULL if N/A).
# 11. Time taken to answer.
1567188322,bf4f9eb45703fca734ebcd83bec860bd,Question,5,1,story,10,What's in the box%2C according to Mary?,a pillow,0,1433
1567188322,bf4f9eb45703fca734ebcd83bec860bd,Question,5,2,story,10,What was really in the box?,a bomb,1,543
1567188322,bf4f9eb45703fca734ebcd83bec860bd,Question,5,3,story,10,Was Mary right about that?,no,1,309
1567188322,bf4f9eb45703fca734ebcd83bec860bd,Question,7,0,politics,NULL,How worried are you about taxpayer money being wasted?,very worried,NULL,163
1567188322,bf4f9eb45703fca734ebcd83bec860bd,Question,6,0,politics,NULL,How worried are you about bombs being sent to government officials?,very worried,NULL,185
# Columns below this comment are as follows:
# 1. Time results were received.
# 2. MD5 hash of participant's IP address.
# 3. Controller name.
# 4. Item number.
# 5. Element number.
# 6. Type.
# 7. Group.
# 8. Field name.
# 9. Field value.
1567188322,bf4f9eb45703fca734ebcd83bec860bd,Form,8,0,subj_info,NULL,year,1991
1567188322,bf4f9eb45703fca734ebcd83bec860bd,Form,8,0,subj_info,NULL,language,English
1567188322,bf4f9eb45703fca734ebcd83bec860bd,Form,8,0,subj_info,NULL,idturk,A5ENT0LJGTX2V
1567188322,bf4f9eb45703fca734ebcd83bec860bd,Form,8,0,subj_info,NULL,comment,NO
1567188322,bf4f9eb45703fca734ebcd83bec860bd,Form,8,0,subj_info,NULL,sex,male
1567188322,bf4f9eb45703fca734ebcd83bec860bd,Form,8,0,subj_info,NULL,politics,democrat
1567188322,bf4f9eb45703fca734ebcd83bec860bd,Form,8,0,subj_info,NULL,_REACTION_TIME_,14325
#
# Results on Friday August 30 2019 18:05:45 UTC.
# USER AGENT: Mozilla/5.0 (Windows NT 6.1; Win64; x64; rv:68.0) Gecko/20100101 Firefox/68.0
# Design number was non-random = 11
#
# Columns below this comment are as follows:
# 1. Time results were received.
# 2. MD5 hash of participant's IP address.
# 3. Controller name.
# 4. Item number.
# 5. Element number.
# 6. Type.
# 7. Group.
# 8. Field name.
# 9. Field value.
1567188346,9c80f8fae6bfecffc6f2017ba10e58ce,Form,3,0,consent,NULL,,yes
1567188346,9c80f8fae6bfecffc6f2017ba10e58ce,Form,3,0,consent,NULL,_REACTION_TIME_,4336
1567188346,9c80f8fae6bfecffc6f2017ba10e58ce,Form,4,0,instructions,NULL,_REACTION_TIME_,2040
1567188346,9c80f8fae6bfecffc6f2017ba10e58ce,Form,5,0,story,10,_REACTION_TIME_,13280
# Columns below this comment are as follows:
# 1. Time results were received.
# 2. MD5 hash of participant's IP address.
# 3. Controller name.
# 4. Item number.
# 5. Element number.
# 6. Type.
# 7. Group.
# 8. Question (NULL if none).
# 9. Answer.
# 10. Whether or not answer was correct (NULL if N/A).
# 11. Time taken to answer.
1567188346,9c80f8fae6bfecffc6f2017ba10e58ce,Question,5,1,story,10,What's in the box%2C according to Mary?,a bomb,1,2282
1567188346,9c80f8fae6bfecffc6f2017ba10e58ce,Question,5,2,story,10,What was really in the box?,a pillow,0,1609
1567188346,9c80f8fae6bfecffc6f2017ba10e58ce,Question,5,3,story,10,Was Mary right about that?,no,1,2414
1567188346,9c80f8fae6bfecffc6f2017ba10e58ce,Question,7,0,politics,NULL,How worried are you about taxpayer money being wasted?,not at all worried,NULL,4126
1567188346,9c80f8fae6bfecffc6f2017ba10e58ce,Question,6,0,politics,NULL,How worried are you about bombs being sent to government officials?,not at all worried,NULL,2875
# Columns below this comment are as follows:
# 1. Time results were received.
# 2. MD5 hash of participant's IP address.
# 3. Controller name.
# 4. Item number.
# 5. Element number.
# 6. Type.
# 7. Group.
# 8. Field name.
# 9. Field value.
1567188346,9c80f8fae6bfecffc6f2017ba10e58ce,Form,8,0,subj_info,NULL,year,1990
1567188346,9c80f8fae6bfecffc6f2017ba10e58ce,Form,8,0,subj_info,NULL,language,English
1567188346,9c80f8fae6bfecffc6f2017ba10e58ce,Form,8,0,subj_info,NULL,idturk,A31X1FW485DON4
1567188346,9c80f8fae6bfecffc6f2017ba10e58ce,Form,8,0,subj_info,NULL,comment,
1567188346,9c80f8fae6bfecffc6f2017ba10e58ce,Form,8,0,subj_info,NULL,sex,male
1567188346,9c80f8fae6bfecffc6f2017ba10e58ce,Form,8,0,subj_info,NULL,politics,democrat
1567188346,9c80f8fae6bfecffc6f2017ba10e58ce,Form,8,0,subj_info,NULL,_REACTION_TIME_,15042
#
# Results on Friday August 30 2019 18:06:18 UTC.
# USER AGENT: Mozilla/5.0 (Windows NT 10.0; Win64; x64; rv:68.0) Gecko/20100101 Firefox/68.0
# Design number was non-random = 9
#
# Columns below this comment are as follows:
# 1. Time results were received.
# 2. MD5 hash of participant's IP address.
# 3. Controller name.
# 4. Item number.
# 5. Element number.
# 6. Type.
# 7. Group.
# 8. Field name.
# 9. Field value.
1567188379,cc3e5628cc2bbef41dc75596b1b63d19,Form,3,0,consent,NULL,,yes
1567188379,cc3e5628cc2bbef41dc75596b1b63d19,Form,3,0,consent,NULL,_REACTION_TIME_,9856
1567188379,cc3e5628cc2bbef41dc75596b1b63d19,Form,4,0,instructions,NULL,_REACTION_TIME_,3354
1567188379,cc3e5628cc2bbef41dc75596b1b63d19,Form,5,0,story,10,_REACTION_TIME_,73384
# Columns below this comment are as follows:
# 1. Time results were received.
# 2. MD5 hash of participant's IP address.
# 3. Controller name.
# 4. Item number.
# 5. Element number.
# 6. Type.
# 7. Group.
# 8. Question (NULL if none).
# 9. Answer.
# 10. Whether or not answer was correct (NULL if N/A).
# 11. Time taken to answer.
1567188379,cc3e5628cc2bbef41dc75596b1b63d19,Question,5,1,story,10,What's in the box%2C according to Mary?,a bomb,1,2976
1567188379,cc3e5628cc2bbef41dc75596b1b63d19,Question,5,2,story,10,What was really in the box?,a pillow,0,1329
1567188379,cc3e5628cc2bbef41dc75596b1b63d19,Question,5,3,story,10,Was Mary right about that?,no,1,2820
1567188379,cc3e5628cc2bbef41dc75596b1b63d19,Question,7,0,politics,NULL,How worried are you about taxpayer money being wasted?,very worried,NULL,3579
1567188379,cc3e5628cc2bbef41dc75596b1b63d19,Question,6,0,politics,NULL,How worried are you about bombs being sent to government officials?,very worried,NULL,4972
# Columns below this comment are as follows:
# 1. Time results were received.
# 2. MD5 hash of participant's IP address.
# 3. Controller name.
# 4. Item number.
# 5. Element number.
# 6. Type.
# 7. Group.
# 8. Field name.
# 9. Field value.
1567188379,cc3e5628cc2bbef41dc75596b1b63d19,Form,8,0,subj_info,NULL,year,1994
1567188379,cc3e5628cc2bbef41dc75596b1b63d19,Form,8,0,subj_info,NULL,language,English
1567188379,cc3e5628cc2bbef41dc75596b1b63d19,Form,8,0,subj_info,NULL,idturk,A15FLK1H6P7B57
1567188379,cc3e5628cc2bbef41dc75596b1b63d19,Form,8,0,subj_info,NULL,comment,
1567188379,cc3e5628cc2bbef41dc75596b1b63d19,Form,8,0,subj_info,NULL,sex,male
1567188379,cc3e5628cc2bbef41dc75596b1b63d19,Form,8,0,subj_info,NULL,politics,other
1567188379,cc3e5628cc2bbef41dc75596b1b63d19,Form,8,0,subj_info,NULL,_REACTION_TIME_,14221
#
# Results on Friday August 30 2019 18:06:42 UTC.
# USER AGENT: Mozilla/5.0 (Macintosh; Intel Mac OS X 10_12_6) AppleWebKit/605.1.15 (KHTML, like Gecko) Version/12.1.2 Safari/605.1.15
# Design number was non-random = 13
#
# Columns below this comment are as follows:
# 1. Time results were received.
# 2. MD5 hash of participant's IP address.
# 3. Controller name.
# 4. Item number.
# 5. Element number.
# 6. Type.
# 7. Group.
# 8. Field name.
# 9. Field value.
1567188403,ddb250b027f1546de5a15980546a775f,Form,3,0,consent,NULL,,yes
1567188403,ddb250b027f1546de5a15980546a775f,Form,3,0,consent,NULL,_REACTION_TIME_,14315
1567188403,ddb250b027f1546de5a15980546a775f,Form,4,0,instructions,NULL,_REACTION_TIME_,2654
1567188403,ddb250b027f1546de5a15980546a775f,Form,5,0,story,10,_REACTION_TIME_,16658
# Columns below this comment are as follows:
# 1. Time results were received.
# 2. MD5 hash of participant's IP address.
# 3. Controller name.
# 4. Item number.
# 5. Element number.
# 6. Type.
# 7. Group.
# 8. Question (NULL if none).
# 9. Answer.
# 10. Whether or not answer was correct (NULL if N/A).
# 11. Time taken to answer.
1567188403,ddb250b027f1546de5a15980546a775f,Question,5,1,story,10,What's in the box%2C according to Mary?,a bomb,1,10924
1567188403,ddb250b027f1546de5a15980546a775f,Question,5,2,story,10,What was really in the box?,a pillow,0,1363
1567188403,ddb250b027f1546de5a15980546a775f,Question,5,3,story,10,Was Mary right about that?,no,1,1876
1567188403,ddb250b027f1546de5a15980546a775f,Question,6,0,politics,NULL,How worried are you about bombs being sent to government officials?,a little worried,NULL,3099
1567188403,ddb250b027f1546de5a15980546a775f,Question,7,0,politics,NULL,How worried are you about taxpayer money being wasted?,a little worried,NULL,4189
# Columns below this comment are as follows:
# 1. Time results were received.
# 2. MD5 hash of participant's IP address.
# 3. Controller name.
# 4. Item number.
# 5. Element number.
# 6. Type.
# 7. Group.
# 8. Field name.
# 9. Field value.
1567188403,ddb250b027f1546de5a15980546a775f,Form,8,0,subj_info,NULL,year,1983
1567188403,ddb250b027f1546de5a15980546a775f,Form,8,0,subj_info,NULL,language,English
1567188403,ddb250b027f1546de5a15980546a775f,Form,8,0,subj_info,NULL,idturk,A22LQL0UHAOMC9
1567188403,ddb250b027f1546de5a15980546a775f,Form,8,0,subj_info,NULL,comment,
1567188403,ddb250b027f1546de5a15980546a775f,Form,8,0,subj_info,NULL,sex,female
1567188403,ddb250b027f1546de5a15980546a775f,Form,8,0,subj_info,NULL,politics,democrat
1567188403,ddb250b027f1546de5a15980546a775f,Form,8,0,subj_info,NULL,_REACTION_TIME_,20740
#
# Results on Friday August 30 2019 18:07:53 UTC.
# USER AGENT: Mozilla/5.0 (Windows NT 10.0; Win64; x64) AppleWebKit/537.36 (KHTML, like Gecko) Chrome/76.0.3809.132 Safari/537.36
# Design number was non-random = 15
#
# Columns below this comment are as follows:
# 1. Time results were received.
# 2. MD5 hash of participant's IP address.
# 3. Controller name.
# 4. Item number.
# 5. Element number.
# 6. Type.
# 7. Group.
# 8. Field name.
# 9. Field value.
1567188474,2720771035d3e3805104b60c05b50aca,Form,3,0,consent,NULL,,yes
1567188474,2720771035d3e3805104b60c05b50aca,Form,3,0,consent,NULL,_REACTION_TIME_,13662
1567188474,2720771035d3e3805104b60c05b50aca,Form,4,0,instructions,NULL,_REACTION_TIME_,3923
1567188474,2720771035d3e3805104b60c05b50aca,Form,5,0,story,10,_REACTION_TIME_,21920
# Columns below this comment are as follows:
# 1. Time results were received.
# 2. MD5 hash of participant's IP address.
# 3. Controller name.
# 4. Item number.
# 5. Element number.
# 6. Type.
# 7. Group.
# 8. Question (NULL if none).
# 9. Answer.
# 10. Whether or not answer was correct (NULL if N/A).
# 11. Time taken to answer.
1567188474,2720771035d3e3805104b60c05b50aca,Question,5,1,story,10,What's in the box%2C according to Mary?,a bomb,1,2855
1567188474,2720771035d3e3805104b60c05b50aca,Question,5,2,story,10,What was really in the box?,a pillow,0,2112
1567188474,2720771035d3e3805104b60c05b50aca,Question,5,3,story,10,Was Mary right about that?,no,1,3335
1567188474,2720771035d3e3805104b60c05b50aca,Question,6,0,politics,NULL,How worried are you about bombs being sent to government officials?,not at all worried,NULL,5181
1567188474,2720771035d3e3805104b60c05b50aca,Question,7,0,politics,NULL,How worried are you about taxpayer money being wasted?,not at all worried,NULL,4493
# Columns below this comment are as follows:
# 1. Time results were received.
# 2. MD5 hash of participant's IP address.
# 3. Controller name.
# 4. Item number.
# 5. Element number.
# 6. Type.
# 7. Group.
# 8. Field name.
# 9. Field value.
1567188474,2720771035d3e3805104b60c05b50aca,Form,8,0,subj_info,NULL,year,1967
1567188474,2720771035d3e3805104b60c05b50aca,Form,8,0,subj_info,NULL,language,English
1567188474,2720771035d3e3805104b60c05b50aca,Form,8,0,subj_info,NULL,idturk,A13Y5SUT236JE4
1567188474,2720771035d3e3805104b60c05b50aca,Form,8,0,subj_info,NULL,comment,
1567188474,2720771035d3e3805104b60c05b50aca,Form,8,0,subj_info,NULL,sex,female
1567188474,2720771035d3e3805104b60c05b50aca,Form,8,0,subj_info,NULL,politics,other
1567188474,2720771035d3e3805104b60c05b50aca,Form,8,0,subj_info,NULL,_REACTION_TIME_,34800
#
# Results on Friday August 30 2019 18:09:21 UTC.
# USER AGENT: Mozilla/5.0 (Windows NT 10.0; Win64; x64) AppleWebKit/537.36 (KHTML, like Gecko) Chrome/76.0.3809.132 Safari/537.36
# Design number was non-random = 16
#
# Columns below this comment are as follows:
# 1. Time results were received.
# 2. MD5 hash of participant's IP address.
# 3. Controller name.
# 4. Item number.
# 5. Element number.
# 6. Type.
# 7. Group.
# 8. Field name.
# 9. Field value.
1567188562,ae66f3cf114385dd8f02f3ac1d141f6d,Form,3,0,consent,NULL,,yes
1567188562,ae66f3cf114385dd8f02f3ac1d141f6d,Form,3,0,consent,NULL,_REACTION_TIME_,14204
1567188562,ae66f3cf114385dd8f02f3ac1d141f6d,Form,4,0,instructions,NULL,_REACTION_TIME_,4930
1567188562,ae66f3cf114385dd8f02f3ac1d141f6d,Form,5,0,story,10,_REACTION_TIME_,24341
# Columns below this comment are as follows:
# 1. Time results were received.
# 2. MD5 hash of participant's IP address.
# 3. Controller name.
# 4. Item number.
# 5. Element number.
# 6. Type.
# 7. Group.
# 8. Question (NULL if none).
# 9. Answer.
# 10. Whether or not answer was correct (NULL if N/A).
# 11. Time taken to answer.
1567188562,ae66f3cf114385dd8f02f3ac1d141f6d,Question,5,1,story,10,What's in the box%2C according to Mary?,a pillow,0,3474
1567188562,ae66f3cf114385dd8f02f3ac1d141f6d,Question,5,2,story,10,What was really in the box?,a pillow,0,2686
1567188562,ae66f3cf114385dd8f02f3ac1d141f6d,Question,5,3,story,10,Was Mary right about that?,no,1,4252
1567188562,ae66f3cf114385dd8f02f3ac1d141f6d,Question,6,0,politics,NULL,How worried are you about bombs being sent to government officials?,a little worried,NULL,5086
1567188562,ae66f3cf114385dd8f02f3ac1d141f6d,Question,7,0,politics,NULL,How worried are you about taxpayer money being wasted?,very worried,NULL,4825
# Columns below this comment are as follows:
# 1. Time results were received.
# 2. MD5 hash of participant's IP address.
# 3. Controller name.
# 4. Item number.
# 5. Element number.
# 6. Type.
# 7. Group.
# 8. Field name.
# 9. Field value.
1567188562,ae66f3cf114385dd8f02f3ac1d141f6d,Form,8,0,subj_info,NULL,year,1945
1567188562,ae66f3cf114385dd8f02f3ac1d141f6d,Form,8,0,subj_info,NULL,language,English
1567188562,ae66f3cf114385dd8f02f3ac1d141f6d,Form,8,0,subj_info,NULL,idturk,A139701FEHQMJ7
1567188562,ae66f3cf114385dd8f02f3ac1d141f6d,Form,8,0,subj_info,NULL,comment,
1567188562,ae66f3cf114385dd8f02f3ac1d141f6d,Form,8,0,subj_info,NULL,sex,female
1567188562,ae66f3cf114385dd8f02f3ac1d141f6d,Form,8,0,subj_info,NULL,politics,democrat
1567188562,ae66f3cf114385dd8f02f3ac1d141f6d,Form,8,0,subj_info,NULL,_REACTION_TIME_,33545
#
# Results on Friday August 30 2019 18:09:46 UTC.
# USER AGENT: Mozilla/5.0 (Windows NT 10.0; Win64; x64) AppleWebKit/537.36 (KHTML, like Gecko) Chrome/76.0.3809.100 Safari/537.36
# Design number was non-random = 17
#
# Columns below this comment are as follows:
# 1. Time results were received.
# 2. MD5 hash of participant's IP address.
# 3. Controller name.
# 4. Item number.
# 5. Element number.
# 6. Type.
# 7. Group.
# 8. Field name.
# 9. Field value.
1567188586,64953cfd1189af09b9ab05639003016d,Form,3,0,consent,NULL,,yes
1567188586,64953cfd1189af09b9ab05639003016d,Form,3,0,consent,NULL,_REACTION_TIME_,9453
1567188586,64953cfd1189af09b9ab05639003016d,Form,4,0,instructions,NULL,_REACTION_TIME_,18159
1567188586,64953cfd1189af09b9ab05639003016d,Form,5,0,story,10,_REACTION_TIME_,24318
# Columns below this comment are as follows:
# 1. Time results were received.
# 2. MD5 hash of participant's IP address.
# 3. Controller name.
# 4. Item number.
# 5. Element number.
# 6. Type.
# 7. Group.
# 8. Question (NULL if none).
# 9. Answer.
# 10. Whether or not answer was correct (NULL if N/A).
# 11. Time taken to answer.
1567188586,64953cfd1189af09b9ab05639003016d,Question,5,1,story,10,What's in the box%2C according to Mary?,a bomb,1,5196
1567188586,64953cfd1189af09b9ab05639003016d,Question,5,2,story,10,What was really in the box?,a pillow,0,2149
1567188586,64953cfd1189af09b9ab05639003016d,Question,5,3,story,10,Was Mary right about that?,no,1,3718
1567188586,64953cfd1189af09b9ab05639003016d,Question,6,0,politics,NULL,How worried are you about bombs being sent to government officials?,a little worried,NULL,4198
1567188586,64953cfd1189af09b9ab05639003016d,Question,7,0,politics,NULL,How worried are you about taxpayer money being wasted?,very worried,NULL,2902
# Columns below this comment are as follows:
# 1. Time results were received.
# 2. MD5 hash of participant's IP address.
# 3. Controller name.
# 4. Item number.
# 5. Element number.
# 6. Type.
# 7. Group.
# 8. Field name.
# 9. Field value.
1567188586,64953cfd1189af09b9ab05639003016d,Form,8,0,subj_info,NULL,year,1982
1567188586,64953cfd1189af09b9ab05639003016d,Form,8,0,subj_info,NULL,language,English
1567188586,64953cfd1189af09b9ab05639003016d,Form,8,0,subj_info,NULL,idturk,A2ZUHRSKXOMYG5
1567188586,64953cfd1189af09b9ab05639003016d,Form,8,0,subj_info,NULL,comment,
1567188586,64953cfd1189af09b9ab05639003016d,Form,8,0,subj_info,NULL,sex,female
1567188586,64953cfd1189af09b9ab05639003016d,Form,8,0,subj_info,NULL,politics,other
1567188586,64953cfd1189af09b9ab05639003016d,Form,8,0,subj_info,NULL,_REACTION_TIME_,20398
#
# Results on Friday August 30 2019 18:10:09 UTC.
# USER AGENT: Mozilla/5.0 (Macintosh; Intel Mac OS X 10_9_5) AppleWebKit/537.36 (KHTML, like Gecko) Chrome/65.0.3325.181 Safari/537.36
# Design number was non-random = 14
#
# Columns below this comment are as follows:
# 1. Time results were received.
# 2. MD5 hash of participant's IP address.
# 3. Controller name.
# 4. Item number.
# 5. Element number.
# 6. Type.
# 7. Group.
# 8. Field name.
# 9. Field value.
1567188610,0010422a0d2bba8378309f2eee8167c5,Form,3,0,consent,NULL,,yes
1567188610,0010422a0d2bba8378309f2eee8167c5,Form,3,0,consent,NULL,_REACTION_TIME_,63006
1567188610,0010422a0d2bba8378309f2eee8167c5,Form,4,0,instructions,NULL,_REACTION_TIME_,6316
1567188610,0010422a0d2bba8378309f2eee8167c5,Form,5,0,story,10,_REACTION_TIME_,114944
# Columns below this comment are as follows:
# 1. Time results were received.
# 2. MD5 hash of participant's IP address.
# 3. Controller name.
# 4. Item number.
# 5. Element number.
# 6. Type.
# 7. Group.
# 8. Question (NULL if none).
# 9. Answer.
# 10. Whether or not answer was correct (NULL if N/A).
# 11. Time taken to answer.
1567188610,0010422a0d2bba8378309f2eee8167c5,Question,5,1,story,10,What's in the box%2C according to Mary?,a bomb,1,2325
1567188610,0010422a0d2bba8378309f2eee8167c5,Question,5,2,story,10,What was really in the box?,a pillow,0,1878
1567188610,0010422a0d2bba8378309f2eee8167c5,Question,5,3,story,10,Was Mary right about that?,no,1,3041
1567188610,0010422a0d2bba8378309f2eee8167c5,Question,7,0,politics,NULL,How worried are you about taxpayer money being wasted?,very worried,NULL,4023
1567188610,0010422a0d2bba8378309f2eee8167c5,Question,6,0,politics,NULL,How worried are you about bombs being sent to government officials?,very worried,NULL,4751
# Columns below this comment are as follows:
# 1. Time results were received.
# 2. MD5 hash of participant's IP address.
# 3. Controller name.
# 4. Item number.
# 5. Element number.
# 6. Type.
# 7. Group.
# 8. Field name.
# 9. Field value.
1567188610,0010422a0d2bba8378309f2eee8167c5,Form,8,0,subj_info,NULL,year,1993
1567188610,0010422a0d2bba8378309f2eee8167c5,Form,8,0,subj_info,NULL,language,english
1567188610,0010422a0d2bba8378309f2eee8167c5,Form,8,0,subj_info,NULL,idturk,A2DWW49I426EFH
1567188610,0010422a0d2bba8378309f2eee8167c5,Form,8,0,subj_info,NULL,comment,
1567188610,0010422a0d2bba8378309f2eee8167c5,Form,8,0,subj_info,NULL,sex,female
1567188610,0010422a0d2bba8378309f2eee8167c5,Form,8,0,subj_info,NULL,politics,democrat
1567188610,0010422a0d2bba8378309f2eee8167c5,Form,8,0,subj_info,NULL,_REACTION_TIME_,58248
#
# Results on Friday August 30 2019 18:10:49 UTC.
# USER AGENT: Mozilla/5.0 (X11; CrOS x86_64 10895.78.0) AppleWebKit/537.36 (KHTML, like Gecko) Chrome/69.0.3497.120 Safari/537.36
# Design number was non-random = 18
#
# Columns below this comment are as follows:
# 1. Time results were received.
# 2. MD5 hash of participant's IP address.
# 3. Controller name.
# 4. Item number.
# 5. Element number.
# 6. Type.
# 7. Group.
# 8. Field name.
# 9. Field value.
1567188650,49805841174651e47c2414e3c4a46f64,Form,3,0,consent,NULL,,yes
1567188650,49805841174651e47c2414e3c4a46f64,Form,3,0,consent,NULL,_REACTION_TIME_,12400
1567188650,49805841174651e47c2414e3c4a46f64,Form,4,0,instructions,NULL,_REACTION_TIME_,2213
1567188650,49805841174651e47c2414e3c4a46f64,Form,5,0,story,10,_REACTION_TIME_,15779
# Columns below this comment are as follows:
# 1. Time results were received.
# 2. MD5 hash of participant's IP address.
# 3. Controller name.
# 4. Item number.
# 5. Element number.
# 6. Type.
# 7. Group.
# 8. Question (NULL if none).
# 9. Answer.
# 10. Whether or not answer was correct (NULL if N/A).
# 11. Time taken to answer.
1567188650,49805841174651e47c2414e3c4a46f64,Question,5,1,story,10,What's in the box%2C according to Mary?,a pillow,0,2715
1567188650,49805841174651e47c2414e3c4a46f64,Question,5,2,story,10,What was really in the box?,a pillow,0,1580
1567188650,49805841174651e47c2414e3c4a46f64,Question,5,3,story,10,Was Mary right about that?,no,1,4133
1567188650,49805841174651e47c2414e3c4a46f64,Question,7,0,politics,NULL,How worried are you about taxpayer money being wasted?,not at all worried,NULL,3246
1567188650,49805841174651e47c2414e3c4a46f64,Question,6,0,politics,NULL,How worried are you about bombs being sent to government officials?,a little worried,NULL,4487
# Columns below this comment are as follows:
# 1. Time results were received.
# 2. MD5 hash of participant's IP address.
# 3. Controller name.
# 4. Item number.
# 5. Element number.
# 6. Type.
# 7. Group.
# 8. Field name.
# 9. Field value.
1567188650,49805841174651e47c2414e3c4a46f64,Form,8,0,subj_info,NULL,year,1961
1567188650,49805841174651e47c2414e3c4a46f64,Form,8,0,subj_info,NULL,language,English
1567188650,49805841174651e47c2414e3c4a46f64,Form,8,0,subj_info,NULL,idturk,A1DUPOUC9RNU4L
1567188650,49805841174651e47c2414e3c4a46f64,Form,8,0,subj_info,NULL,comment,
1567188650,49805841174651e47c2414e3c4a46f64,Form,8,0,subj_info,NULL,sex,female
1567188650,49805841174651e47c2414e3c4a46f64,Form,8,0,subj_info,NULL,politics,democrat
1567188650,49805841174651e47c2414e3c4a46f64,Form,8,0,subj_info,NULL,_REACTION_TIME_,35197
#
# Results on Friday August 30 2019 18:11:12 UTC.
# USER AGENT: Mozilla/5.0 (Macintosh; Intel Mac OS X 10_14_5) AppleWebKit/605.1.15 (KHTML, like Gecko) Version/12.1.1 Safari/605.1.15
# Design number was non-random = 19
#
# Columns below this comment are as follows:
# 1. Time results were received.
# 2. MD5 hash of participant's IP address.
# 3. Controller name.
# 4. Item number.
# 5. Element number.
# 6. Type.
# 7. Group.
# 8. Field name.
# 9. Field value.
1567188672,fccd7e68155f46d0d388d783d5aae58f,Form,3,0,consent,NULL,,yes
1567188672,fccd7e68155f46d0d388d783d5aae58f,Form,3,0,consent,NULL,_REACTION_TIME_,9555
1567188672,fccd7e68155f46d0d388d783d5aae58f,Form,4,0,instructions,NULL,_REACTION_TIME_,2231
1567188672,fccd7e68155f46d0d388d783d5aae58f,Form,5,0,story,10,_REACTION_TIME_,30229
# Columns below this comment are as follows:
# 1. Time results were received.
# 2. MD5 hash of participant's IP address.
# 3. Controller name.
# 4. Item number.
# 5. Element number.
# 6. Type.
# 7. Group.
# 8. Question (NULL if none).
# 9. Answer.
# 10. Whether or not answer was correct (NULL if N/A).
# 11. Time taken to answer.
1567188672,fccd7e68155f46d0d388d783d5aae58f,Question,5,1,story,10,What's in the box%2C according to Mary?,a bomb,1,2758
1567188672,fccd7e68155f46d0d388d783d5aae58f,Question,5,2,story,10,What was really in the box?,a pillow,0,1446
1567188672,fccd7e68155f46d0d388d783d5aae58f,Question,5,3,story,10,Was Mary right about that?,no,1,3229
1567188672,fccd7e68155f46d0d388d783d5aae58f,Question,6,0,politics,NULL,How worried are you about bombs being sent to government officials?,a little worried,NULL,3287
1567188672,fccd7e68155f46d0d388d783d5aae58f,Question,7,0,politics,NULL,How worried are you about taxpayer money being wasted?,a little worried,NULL,4477
# Columns below this comment are as follows:
# 1. Time results were received.
# 2. MD5 hash of participant's IP address.
# 3. Controller name.
# 4. Item number.
# 5. Element number.
# 6. Type.
# 7. Group.
# 8. Field name.
# 9. Field value.
1567188672,fccd7e68155f46d0d388d783d5aae58f,Form,8,0,subj_info,NULL,year,1990
1567188672,fccd7e68155f46d0d388d783d5aae58f,Form,8,0,subj_info,NULL,language,English
1567188672,fccd7e68155f46d0d388d783d5aae58f,Form,8,0,subj_info,NULL,idturk,A12M2G1YU4TVCI
1567188672,fccd7e68155f46d0d388d783d5aae58f,Form,8,0,subj_info,NULL,comment,none
1567188672,fccd7e68155f46d0d388d783d5aae58f,Form,8,0,subj_info,NULL,sex,female
1567188672,fccd7e68155f46d0d388d783d5aae58f,Form,8,0,subj_info,NULL,politics,democrat
1567188672,fccd7e68155f46d0d388d783d5aae58f,Form,8,0,subj_info,NULL,_REACTION_TIME_,16982
#
# Results on Friday August 30 2019 18:12:11 UTC.
# USER AGENT: Mozilla/5.0 (Windows NT 6.3; Win64; x64) AppleWebKit/537.36 (KHTML, like Gecko) Chrome/76.0.3809.132 Safari/537.36
# Design number was non-random = 17
#
# Columns below this comment are as follows:
# 1. Time results were received.
# 2. MD5 hash of participant's IP address.
# 3. Controller name.
# 4. Item number.
# 5. Element number.
# 6. Type.
# 7. Group.
# 8. Field name.
# 9. Field value.
1567188731,0977769f4c706e2d1dc5c7e81238bc41,Form,3,0,consent,NULL,,yes
1567188731,0977769f4c706e2d1dc5c7e81238bc41,Form,3,0,consent,NULL,_REACTION_TIME_,5546
1567188731,0977769f4c706e2d1dc5c7e81238bc41,Form,4,0,instructions,NULL,_REACTION_TIME_,1476
1567188731,0977769f4c706e2d1dc5c7e81238bc41,Form,5,0,story,10,_REACTION_TIME_,7259
# Columns below this comment are as follows:
# 1. Time results were received.
# 2. MD5 hash of participant's IP address.
# 3. Controller name.
# 4. Item number.
# 5. Element number.
# 6. Type.
# 7. Group.
# 8. Question (NULL if none).
# 9. Answer.
# 10. Whether or not answer was correct (NULL if N/A).
# 11. Time taken to answer.
1567188731,0977769f4c706e2d1dc5c7e81238bc41,Question,5,1,story,10,What's in the box%2C according to Mary?,a bomb,1,37508
1567188731,0977769f4c706e2d1dc5c7e81238bc41,Question,5,2,story,10,What was really in the box?,a pillow,0,2362
1567188731,0977769f4c706e2d1dc5c7e81238bc41,Question,5,3,story,10,Was Mary right about that?,no,1,4373
1567188731,0977769f4c706e2d1dc5c7e81238bc41,Question,6,0,politics,NULL,How worried are you about bombs being sent to government officials?,not at all worried,NULL,30179
1567188731,0977769f4c706e2d1dc5c7e81238bc41,Question,7,0,politics,NULL,How worried are you about taxpayer money being wasted?,very worried,NULL,18852
# Columns below this comment are as follows:
# 1. Time results were received.
# 2. MD5 hash of participant's IP address.
# 3. Controller name.
# 4. Item number.
# 5. Element number.
# 6. Type.
# 7. Group.
# 8. Field name.
# 9. Field value.
1567188731,0977769f4c706e2d1dc5c7e81238bc41,Form,8,0,subj_info,NULL,year,06/22/1980
1567188731,0977769f4c706e2d1dc5c7e81238bc41,Form,8,0,subj_info,NULL,language,English
1567188731,0977769f4c706e2d1dc5c7e81238bc41,Form,8,0,subj_info,NULL,idturk,A22Y071U8BGXDF
1567188731,0977769f4c706e2d1dc5c7e81238bc41,Form,8,0,subj_info,NULL,comment,Very interesting
1567188731,0977769f4c706e2d1dc5c7e81238bc41,Form,8,0,subj_info,NULL,sex,female
1567188731,0977769f4c706e2d1dc5c7e81238bc41,Form,8,0,subj_info,NULL,politics,republican
1567188731,0977769f4c706e2d1dc5c7e81238bc41,Form,8,0,subj_info,NULL,_REACTION_TIME_,93638
#
# Results on Friday August 30 2019 18:12:31 UTC.
# USER AGENT: Mozilla/5.0 (Windows NT 10.0; Win64; x64) AppleWebKit/537.36 (KHTML, like Gecko) Chrome/76.0.3809.132 Safari/537.36
# Design number was non-random = 21
#
# Columns below this comment are as follows:
# 1. Time results were received.
# 2. MD5 hash of participant's IP address.
# 3. Controller name.
# 4. Item number.
# 5. Element number.
# 6. Type.
# 7. Group.
# 8. Field name.
# 9. Field value.
1567188752,6cffa048e63fb48573400b18867e2619,Form,3,0,consent,NULL,,yes
1567188752,6cffa048e63fb48573400b18867e2619,Form,3,0,consent,NULL,_REACTION_TIME_,16539
1567188752,6cffa048e63fb48573400b18867e2619,Form,4,0,instructions,NULL,_REACTION_TIME_,3732
1567188752,6cffa048e63fb48573400b18867e2619,Form,5,0,story,10,_REACTION_TIME_,15791
# Columns below this comment are as follows:
# 1. Time results were received.
# 2. MD5 hash of participant's IP address.
# 3. Controller name.
# 4. Item number.
# 5. Element number.
# 6. Type.
# 7. Group.
# 8. Question (NULL if none).
# 9. Answer.
# 10. Whether or not answer was correct (NULL if N/A).
# 11. Time taken to answer.
1567188752,6cffa048e63fb48573400b18867e2619,Question,5,1,story,10,What's in the box%2C according to Mary?,a pillow,0,2574
1567188752,6cffa048e63fb48573400b18867e2619,Question,5,2,story,10,What was really in the box?,a pillow,0,3150
1567188752,6cffa048e63fb48573400b18867e2619,Question,5,3,story,10,Was Mary right about that?,no,1,3349
1567188752,6cffa048e63fb48573400b18867e2619,Question,7,0,politics,NULL,How worried are you about taxpayer money being wasted?,a little worried,NULL,4303
1567188752,6cffa048e63fb48573400b18867e2619,Question,6,0,politics,NULL,How worried are you about bombs being sent to government officials?,a little worried,NULL,8502
# Columns below this comment are as follows:
# 1. Time results were received.
# 2. MD5 hash of participant's IP address.
# 3. Controller name.
# 4. Item number.
# 5. Element number.
# 6. Type.
# 7. Group.
# 8. Field name.
# 9. Field value.
1567188752,6cffa048e63fb48573400b18867e2619,Form,8,0,subj_info,NULL,year,1994
1567188752,6cffa048e63fb48573400b18867e2619,Form,8,0,subj_info,NULL,language,English
1567188752,6cffa048e63fb48573400b18867e2619,Form,8,0,subj_info,NULL,idturk,A5HEKO0GZ3GD9
1567188752,6cffa048e63fb48573400b18867e2619,Form,8,0,subj_info,NULL,comment,Accidentally clicked pillow for the first question instead of bomb.
1567188752,6cffa048e63fb48573400b18867e2619,Form,8,0,subj_info,NULL,sex,female
1567188752,6cffa048e63fb48573400b18867e2619,Form,8,0,subj_info,NULL,politics,democrat
1567188752,6cffa048e63fb48573400b18867e2619,Form,8,0,subj_info,NULL,_REACTION_TIME_,39601
#
# Results on Friday August 30 2019 18:14:24 UTC.
# USER AGENT: Mozilla/5.0 (Windows NT 10.0; Win64; x64) AppleWebKit/537.36 (KHTML, like Gecko) Chrome/64.0.3282.140 Safari/537.36 Edge/18.17763
# Design number was non-random = 16
#
# Columns below this comment are as follows:
# 1. Time results were received.
# 2. MD5 hash of participant's IP address.
# 3. Controller name.
# 4. Item number.
# 5. Element number.
# 6. Type.
# 7. Group.
# 8. Field name.
# 9. Field value.
1567188864,e1d5ac4bd614bc49afb1341a770bc059,Form,3,0,consent,NULL,,yes
1567188864,e1d5ac4bd614bc49afb1341a770bc059,Form,3,0,consent,NULL,_REACTION_TIME_,5894
1567188864,e1d5ac4bd614bc49afb1341a770bc059,Form,4,0,instructions,NULL,_REACTION_TIME_,337862
1567188864,e1d5ac4bd614bc49afb1341a770bc059,Form,5,0,story,10,_REACTION_TIME_,14684
# Columns below this comment are as follows:
# 1. Time results were received.
# 2. MD5 hash of participant's IP address.
# 3. Controller name.
# 4. Item number.
# 5. Element number.
# 6. Type.
# 7. Group.
# 8. Question (NULL if none).
# 9. Answer.
# 10. Whether or not answer was correct (NULL if N/A).
# 11. Time taken to answer.
1567188864,e1d5ac4bd614bc49afb1341a770bc059,Question,5,1,story,10,What's in the box%2C according to Mary?,a pillow,0,3552
1567188864,e1d5ac4bd614bc49afb1341a770bc059,Question,5,2,story,10,What was really in the box?,a pillow,0,8178
1567188864,e1d5ac4bd614bc49afb1341a770bc059,Question,5,3,story,10,Was Mary right about that?,no,1,2481
1567188864,e1d5ac4bd614bc49afb1341a770bc059,Question,6,0,politics,NULL,How worried are you about bombs being sent to government officials?,a little worried,NULL,3957
1567188864,e1d5ac4bd614bc49afb1341a770bc059,Question,7,0,politics,NULL,How worried are you about taxpayer money being wasted?,very worried,NULL,4661
# Columns below this comment are as follows:
# 1. Time results were received.
# 2. MD5 hash of participant's IP address.
# 3. Controller name.
# 4. Item number.
# 5. Element number.
# 6. Type.
# 7. Group.
# 8. Field name.
# 9. Field value.
1567188864,e1d5ac4bd614bc49afb1341a770bc059,Form,8,0,subj_info,NULL,year,1961
1567188864,e1d5ac4bd614bc49afb1341a770bc059,Form,8,0,subj_info,NULL,language,English
1567188864,e1d5ac4bd614bc49afb1341a770bc059,Form,8,0,subj_info,NULL,idturk,ANSU8XSIM0DIG
1567188864,e1d5ac4bd614bc49afb1341a770bc059,Form,8,0,subj_info,NULL,comment,
1567188864,e1d5ac4bd614bc49afb1341a770bc059,Form,8,0,subj_info,NULL,sex,female
1567188864,e1d5ac4bd614bc49afb1341a770bc059,Form,8,0,subj_info,NULL,politics,democrat
1567188864,e1d5ac4bd614bc49afb1341a770bc059,Form,8,0,subj_info,NULL,_REACTION_TIME_,58446
#
# Results on Friday August 30 2019 18:15:36 UTC.
# USER AGENT: Mozilla/5.0 (Windows NT 10.0; Win64; x64) AppleWebKit/537.36 (KHTML, like Gecko) Chrome/76.0.3809.100 Safari/537.36
# Design number was non-random = 24
#
# Columns below this comment are as follows:
# 1. Time results were received.
# 2. MD5 hash of participant's IP address.
# 3. Controller name.
# 4. Item number.
# 5. Element number.
# 6. Type.
# 7. Group.
# 8. Field name.
# 9. Field value.
1567188936,4c575241aa9d39bef459b45237dc7998,Form,3,0,consent,NULL,,yes
1567188936,4c575241aa9d39bef459b45237dc7998,Form,3,0,consent,NULL,_REACTION_TIME_,19634
1567188936,4c575241aa9d39bef459b45237dc7998,Form,4,0,instructions,NULL,_REACTION_TIME_,5708
1567188936,4c575241aa9d39bef459b45237dc7998,Form,5,0,story,10,_REACTION_TIME_,26526
# Columns below this comment are as follows:
# 1. Time results were received.
# 2. MD5 hash of participant's IP address.
# 3. Controller name.
# 4. Item number.
# 5. Element number.
# 6. Type.
# 7. Group.
# 8. Question (NULL if none).
# 9. Answer.
# 10. Whether or not answer was correct (NULL if N/A).
# 11. Time taken to answer.
1567188936,4c575241aa9d39bef459b45237dc7998,Question,5,1,story,10,What's in the box%2C according to Mary?,a bomb,1,2724
1567188936,4c575241aa9d39bef459b45237dc7998,Question,5,2,story,10,What was really in the box?,a pillow,0,1757
1567188936,4c575241aa9d39bef459b45237dc7998,Question,5,3,story,10,Was Mary right about that?,no,1,4814
1567188936,4c575241aa9d39bef459b45237dc7998,Question,7,0,politics,NULL,How worried are you about taxpayer money being wasted?,very worried,NULL,5598
1567188936,4c575241aa9d39bef459b45237dc7998,Question,6,0,politics,NULL,How worried are you about bombs being sent to government officials?,a little worried,NULL,3855
# Columns below this comment are as follows:
# 1. Time results were received.
# 2. MD5 hash of participant's IP address.
# 3. Controller name.
# 4. Item number.
# 5. Element number.
# 6. Type.
# 7. Group.
# 8. Field name.
# 9. Field value.
1567188936,4c575241aa9d39bef459b45237dc7998,Form,8,0,subj_info,NULL,year,1962
1567188936,4c575241aa9d39bef459b45237dc7998,Form,8,0,subj_info,NULL,language,English
1567188936,4c575241aa9d39bef459b45237dc7998,Form,8,0,subj_info,NULL,idturk,AFECJV2SCEZ82
1567188936,4c575241aa9d39bef459b45237dc7998,Form,8,0,subj_info,NULL,comment,
1567188936,4c575241aa9d39bef459b45237dc7998,Form,8,0,subj_info,NULL,sex,female
1567188936,4c575241aa9d39bef459b45237dc7998,Form,8,0,subj_info,NULL,politics,republican
1567188936,4c575241aa9d39bef459b45237dc7998,Form,8,0,subj_info,NULL,_REACTION_TIME_,51816
#
# Results on Friday August 30 2019 18:16:44 UTC.
# USER AGENT: Mozilla/5.0 (Windows NT 10.0; Win64; x64) AppleWebKit/537.36 (KHTML, like Gecko) Chrome/76.0.3809.132 Safari/537.36
# Design number was non-random = 23
#
# Columns below this comment are as follows:
# 1. Time results were received.
# 2. MD5 hash of participant's IP address.
# 3. Controller name.
# 4. Item number.
# 5. Element number.
# 6. Type.
# 7. Group.
# 8. Field name.
# 9. Field value.
1567189005,123775616799fdc9b6ddbcea1d4c170c,Form,3,0,consent,NULL,,yes
1567189005,123775616799fdc9b6ddbcea1d4c170c,Form,3,0,consent,NULL,_REACTION_TIME_,48517
1567189005,123775616799fdc9b6ddbcea1d4c170c,Form,4,0,instructions,NULL,_REACTION_TIME_,72147
1567189005,123775616799fdc9b6ddbcea1d4c170c,Form,5,0,story,10,_REACTION_TIME_,60562
# Columns below this comment are as follows:
# 1. Time results were received.
# 2. MD5 hash of participant's IP address.
# 3. Controller name.
# 4. Item number.
# 5. Element number.
# 6. Type.
# 7. Group.
# 8. Question (NULL if none).
# 9. Answer.
# 10. Whether or not answer was correct (NULL if N/A).
# 11. Time taken to answer.
1567189005,123775616799fdc9b6ddbcea1d4c170c,Question,5,1,story,10,What's in the box%2C according to Mary?,a bomb,1,6916
1567189005,123775616799fdc9b6ddbcea1d4c170c,Question,5,2,story,10,What was really in the box?,a pillow,0,3714
1567189005,123775616799fdc9b6ddbcea1d4c170c,Question,5,3,story,10,Was Mary right about that?,no,1,4703
1567189005,123775616799fdc9b6ddbcea1d4c170c,Question,6,0,politics,NULL,How worried are you about bombs being sent to government officials?,very worried,NULL,7601
1567189005,123775616799fdc9b6ddbcea1d4c170c,Question,7,0,politics,NULL,How worried are you about taxpayer money being wasted?,very worried,NULL,4407
# Columns below this comment are as follows:
# 1. Time results were received.
# 2. MD5 hash of participant's IP address.
# 3. Controller name.
# 4. Item number.
# 5. Element number.
# 6. Type.
# 7. Group.
# 8. Field name.
# 9. Field value.
1567189005,123775616799fdc9b6ddbcea1d4c170c,Form,8,0,subj_info,NULL,year,1979
1567189005,123775616799fdc9b6ddbcea1d4c170c,Form,8,0,subj_info,NULL,language,English
1567189005,123775616799fdc9b6ddbcea1d4c170c,Form,8,0,subj_info,NULL,idturk,A2P3UQZWK9Y3B3
1567189005,123775616799fdc9b6ddbcea1d4c170c,Form,8,0,subj_info,NULL,comment,
1567189005,123775616799fdc9b6ddbcea1d4c170c,Form,8,0,subj_info,NULL,sex,female
1567189005,123775616799fdc9b6ddbcea1d4c170c,Form,8,0,subj_info,NULL,politics,democrat
1567189005,123775616799fdc9b6ddbcea1d4c170c,Form,8,0,subj_info,NULL,_REACTION_TIME_,57723
#
# Results on Friday August 30 2019 18:16:47 UTC.
# USER AGENT: Mozilla/5.0 (X11; CrOS x86_64 12371.34.0) AppleWebKit/537.36 (KHTML, like Gecko) Chrome/77.0.3865.45 Safari/537.36
# Design number was non-random = 26
#
# Columns below this comment are as follows:
# 1. Time results were received.
# 2. MD5 hash of participant's IP address.
# 3. Controller name.
# 4. Item number.
# 5. Element number.
# 6. Type.
# 7. Group.
# 8. Field name.
# 9. Field value.
1567189008,89a3677d46194295353fce7129a9d5c4,Form,3,0,consent,NULL,,yes
1567189008,89a3677d46194295353fce7129a9d5c4,Form,3,0,consent,NULL,_REACTION_TIME_,6386
1567189008,89a3677d46194295353fce7129a9d5c4,Form,4,0,instructions,NULL,_REACTION_TIME_,3662
1567189008,89a3677d46194295353fce7129a9d5c4,Form,5,0,story,10,_REACTION_TIME_,19668
# Columns below this comment are as follows:
# 1. Time results were received.
# 2. MD5 hash of participant's IP address.
# 3. Controller name.
# 4. Item number.
# 5. Element number.
# 6. Type.
# 7. Group.
# 8. Question (NULL if none).
# 9. Answer.
# 10. Whether or not answer was correct (NULL if N/A).
# 11. Time taken to answer.
1567189008,89a3677d46194295353fce7129a9d5c4,Question,5,1,story,10,What's in the box%2C according to Mary?,a bomb,1,4300
1567189008,89a3677d46194295353fce7129a9d5c4,Question,5,2,story,10,What was really in the box?,a pillow,0,1951
1567189008,89a3677d46194295353fce7129a9d5c4,Question,5,3,story,10,Was Mary right about that?,no,1,2392
1567189008,89a3677d46194295353fce7129a9d5c4,Question,7,0,politics,NULL,How worried are you about taxpayer money being wasted?,a little worried,NULL,5785
1567189008,89a3677d46194295353fce7129a9d5c4,Question,6,0,politics,NULL,How worried are you about bombs being sent to government officials?,not at all worried,NULL,2955
# Columns below this comment are as follows:
# 1. Time results were received.
# 2. MD5 hash of participant's IP address.
# 3. Controller name.
# 4. Item number.
# 5. Element number.
# 6. Type.
# 7. Group.
# 8. Field name.
# 9. Field value.
1567189008,89a3677d46194295353fce7129a9d5c4,Form,8,0,subj_info,NULL,year,1981
1567189008,89a3677d46194295353fce7129a9d5c4,Form,8,0,subj_info,NULL,language,English
1567189008,89a3677d46194295353fce7129a9d5c4,Form,8,0,subj_info,NULL,idturk,A2QFLN7ZQL9F8J
1567189008,89a3677d46194295353fce7129a9d5c4,Form,8,0,subj_info,NULL,comment,
1567189008,89a3677d46194295353fce7129a9d5c4,Form,8,0,subj_info,NULL,sex,female
1567189008,89a3677d46194295353fce7129a9d5c4,Form,8,0,subj_info,NULL,politics,republican
1567189008,89a3677d46194295353fce7129a9d5c4,Form,8,0,subj_info,NULL,_REACTION_TIME_,18921
#
# Results on Friday August 30 2019 18:17:06 UTC.
# USER AGENT: Mozilla/5.0 (Windows NT 10.0) AppleWebKit/537.36 (KHTML, like Gecko) Chrome/76.0.3809.100 Safari/537.36
# Design number was non-random = 24
#
# Columns below this comment are as follows:
# 1. Time results were received.
# 2. MD5 hash of participant's IP address.
# 3. Controller name.
# 4. Item number.
# 5. Element number.
# 6. Type.
# 7. Group.
# 8. Field name.
# 9. Field value.
1567189027,a57b7bd3c5a2c1b7dfa6aa4c1675007f,Form,3,0,consent,NULL,,yes
1567189027,a57b7bd3c5a2c1b7dfa6aa4c1675007f,Form,3,0,consent,NULL,_REACTION_TIME_,26632
1567189027,a57b7bd3c5a2c1b7dfa6aa4c1675007f,Form,4,0,instructions,NULL,_REACTION_TIME_,8956
1567189027,a57b7bd3c5a2c1b7dfa6aa4c1675007f,Form,5,0,story,10,_REACTION_TIME_,42213
# Columns below this comment are as follows:
# 1. Time results were received.
# 2. MD5 hash of participant's IP address.
# 3. Controller name.
# 4. Item number.
# 5. Element number.
# 6. Type.
# 7. Group.
# 8. Question (NULL if none).
# 9. Answer.
# 10. Whether or not answer was correct (NULL if N/A).
# 11. Time taken to answer.
1567189027,a57b7bd3c5a2c1b7dfa6aa4c1675007f,Question,5,1,story,10,What's in the box%2C according to Mary?,a bomb,1,15625
1567189027,a57b7bd3c5a2c1b7dfa6aa4c1675007f,Question,5,2,story,10,What was really in the box?,a pillow,0,5114
1567189027,a57b7bd3c5a2c1b7dfa6aa4c1675007f,Question,5,3,story,10,Was Mary right about that?,no,1,9317
1567189027,a57b7bd3c5a2c1b7dfa6aa4c1675007f,Question,7,0,politics,NULL,How worried are you about taxpayer money being wasted?,very worried,NULL,9221
1567189027,a57b7bd3c5a2c1b7dfa6aa4c1675007f,Question,6,0,politics,NULL,How worried are you about bombs being sent to government officials?,not at all worried,NULL,6077
# Columns below this comment are as follows:
# 1. Time results were received.
# 2. MD5 hash of participant's IP address.
# 3. Controller name.
# 4. Item number.
# 5. Element number.
# 6. Type.
# 7. Group.
# 8. Field name.
# 9. Field value.
1567189027,a57b7bd3c5a2c1b7dfa6aa4c1675007f,Form,8,0,subj_info,NULL,year,1974
1567189027,a57b7bd3c5a2c1b7dfa6aa4c1675007f,Form,8,0,subj_info,NULL,language,english
1567189027,a57b7bd3c5a2c1b7dfa6aa4c1675007f,Form,8,0,subj_info,NULL,idturk,AFTX47T07GSFQ
1567189027,a57b7bd3c5a2c1b7dfa6aa4c1675007f,Form,8,0,subj_info,NULL,comment,thx
1567189027,a57b7bd3c5a2c1b7dfa6aa4c1675007f,Form,8,0,subj_info,NULL,sex,male
1567189027,a57b7bd3c5a2c1b7dfa6aa4c1675007f,Form,8,0,subj_info,NULL,politics,other
1567189027,a57b7bd3c5a2c1b7dfa6aa4c1675007f,Form,8,0,subj_info,NULL,_REACTION_TIME_,41709
#
# Results on Friday August 30 2019 18:18:03 UTC.
# USER AGENT: Mozilla/5.0 (Macintosh; Intel Mac OS X 10_13_6) AppleWebKit/537.36 (KHTML, like Gecko) Chrome/76.0.3809.132 Safari/537.36
# Design number was non-random = 28
#
# Columns below this comment are as follows:
# 1. Time results were received.
# 2. MD5 hash of participant's IP address.
# 3. Controller name.
# 4. Item number.
# 5. Element number.
# 6. Type.
# 7. Group.
# 8. Field name.
# 9. Field value.
1567189084,ee96878586532444479f37083c0eaccd,Form,3,0,consent,NULL,,yes
1567189084,ee96878586532444479f37083c0eaccd,Form,3,0,consent,NULL,_REACTION_TIME_,3174
1567189084,ee96878586532444479f37083c0eaccd,Form,4,0,instructions,NULL,_REACTION_TIME_,1082
1567189084,ee96878586532444479f37083c0eaccd,Form,5,0,story,10,_REACTION_TIME_,9629
# Columns below this comment are as follows:
# 1. Time results were received.
# 2. MD5 hash of participant's IP address.
# 3. Controller name.
# 4. Item number.
# 5. Element number.
# 6. Type.
# 7. Group.
# 8. Question (NULL if none).
# 9. Answer.
# 10. Whether or not answer was correct (NULL if N/A).
# 11. Time taken to answer.
1567189084,ee96878586532444479f37083c0eaccd,Question,5,1,story,10,What's in the box%2C according to Mary?,a bomb,1,26913
1567189084,ee96878586532444479f37083c0eaccd,Question,5,2,story,10,What was really in the box?,a pillow,0,1614
1567189084,ee96878586532444479f37083c0eaccd,Question,5,3,story,10,Was Mary right about that?,no,1,2197
1567189084,ee96878586532444479f37083c0eaccd,Question,6,0,politics,NULL,How worried are you about bombs being sent to government officials?,not at all worried,NULL,3884
1567189084,ee96878586532444479f37083c0eaccd,Question,7,0,politics,NULL,How worried are you about taxpayer money being wasted?,very worried,NULL,3941
# Columns below this comment are as follows:
# 1. Time results were received.
# 2. MD5 hash of participant's IP address.
# 3. Controller name.
# 4. Item number.
# 5. Element number.
# 6. Type.
# 7. Group.
# 8. Field name.
# 9. Field value.
1567189084,ee96878586532444479f37083c0eaccd,Form,8,0,subj_info,NULL,year,1990
1567189084,ee96878586532444479f37083c0eaccd,Form,8,0,subj_info,NULL,language,ENGLISH
1567189084,ee96878586532444479f37083c0eaccd,Form,8,0,subj_info,NULL,idturk,A3NMU6AVMQ0QDB
1567189084,ee96878586532444479f37083c0eaccd,Form,8,0,subj_info,NULL,comment,THANK YOU
1567189084,ee96878586532444479f37083c0eaccd,Form,8,0,subj_info,NULL,sex,female
1567189084,ee96878586532444479f37083c0eaccd,Form,8,0,subj_info,NULL,politics,republican
1567189084,ee96878586532444479f37083c0eaccd,Form,8,0,subj_info,NULL,_REACTION_TIME_,21990
#
# Results on Friday August 30 2019 18:19:49 UTC.
# USER AGENT: Mozilla/5.0 (Windows NT 6.1; Win64; x64) AppleWebKit/537.36 (KHTML, like Gecko) Chrome/76.0.3809.132 Safari/537.36
# Design number was non-random = 30
#
# Columns below this comment are as follows:
# 1. Time results were received.
# 2. MD5 hash of participant's IP address.
# 3. Controller name.
# 4. Item number.
# 5. Element number.
# 6. Type.
# 7. Group.
# 8. Field name.
# 9. Field value.
1567189190,fd7ec8aaf3a3ad411d8229c3932382cd,Form,3,0,consent,NULL,,yes
1567189190,fd7ec8aaf3a3ad411d8229c3932382cd,Form,3,0,consent,NULL,_REACTION_TIME_,11219
1567189190,fd7ec8aaf3a3ad411d8229c3932382cd,Form,4,0,instructions,NULL,_REACTION_TIME_,1976
1567189190,fd7ec8aaf3a3ad411d8229c3932382cd,Form,5,0,story,10,_REACTION_TIME_,19231
# Columns below this comment are as follows:
# 1. Time results were received.
# 2. MD5 hash of participant's IP address.
# 3. Controller name.
# 4. Item number.
# 5. Element number.
# 6. Type.
# 7. Group.
# 8. Question (NULL if none).
# 9. Answer.
# 10. Whether or not answer was correct (NULL if N/A).
# 11. Time taken to answer.
1567189190,fd7ec8aaf3a3ad411d8229c3932382cd,Question,5,1,story,10,What's in the box%2C according to Mary?,a bomb,1,8618
1567189190,fd7ec8aaf3a3ad411d8229c3932382cd,Question,5,2,story,10,What was really in the box?,a pillow,0,7530
1567189190,fd7ec8aaf3a3ad411d8229c3932382cd,Question,5,3,story,10,Was Mary right about that?,no,1,2634
1567189190,fd7ec8aaf3a3ad411d8229c3932382cd,Question,6,0,politics,NULL,How worried are you about bombs being sent to government officials?,a little worried,NULL,3123
1567189190,fd7ec8aaf3a3ad411d8229c3932382cd,Question,7,0,politics,NULL,How worried are you about taxpayer money being wasted?,a little worried,NULL,3371
# Columns below this comment are as follows:
# 1. Time results were received.
# 2. MD5 hash of participant's IP address.
# 3. Controller name.
# 4. Item number.
# 5. Element number.
# 6. Type.
# 7. Group.
# 8. Field name.
# 9. Field value.
1567189190,fd7ec8aaf3a3ad411d8229c3932382cd,Form,8,0,subj_info,NULL,year,1986
1567189190,fd7ec8aaf3a3ad411d8229c3932382cd,Form,8,0,subj_info,NULL,language,English
1567189190,fd7ec8aaf3a3ad411d8229c3932382cd,Form,8,0,subj_info,NULL,idturk,AFVLIVQ2XV8SS
1567189190,fd7ec8aaf3a3ad411d8229c3932382cd,Form,8,0,subj_info,NULL,comment,
1567189190,fd7ec8aaf3a3ad411d8229c3932382cd,Form,8,0,subj_info,NULL,sex,male
1567189190,fd7ec8aaf3a3ad411d8229c3932382cd,Form,8,0,subj_info,NULL,politics,other
1567189190,fd7ec8aaf3a3ad411d8229c3932382cd,Form,8,0,subj_info,NULL,_REACTION_TIME_,16368
#
# Results on Friday August 30 2019 18:19:58 UTC.
# USER AGENT: Mozilla/5.0 (Windows NT 10.0; Win64; x64) AppleWebKit/537.36 (KHTML, like Gecko) Chrome/76.0.3809.132 Safari/537.36
# Design number was non-random = 29
#
# Columns below this comment are as follows:
# 1. Time results were received.
# 2. MD5 hash of participant's IP address.
# 3. Controller name.
# 4. Item number.
# 5. Element number.
# 6. Type.
# 7. Group.
# 8. Field name.
# 9. Field value.
1567189198,97fe2791975a9561d498fc635bac2a0c,Form,3,0,consent,NULL,,yes
1567189198,97fe2791975a9561d498fc635bac2a0c,Form,3,0,consent,NULL,_REACTION_TIME_,27579
1567189198,97fe2791975a9561d498fc635bac2a0c,Form,4,0,instructions,NULL,_REACTION_TIME_,3292
1567189198,97fe2791975a9561d498fc635bac2a0c,Form,5,0,story,10,_REACTION_TIME_,30460
# Columns below this comment are as follows:
# 1. Time results were received.
# 2. MD5 hash of participant's IP address.
# 3. Controller name.
# 4. Item number.
# 5. Element number.
# 6. Type.
# 7. Group.
# 8. Question (NULL if none).
# 9. Answer.
# 10. Whether or not answer was correct (NULL if N/A).
# 11. Time taken to answer.
1567189198,97fe2791975a9561d498fc635bac2a0c,Question,5,1,story,10,What's in the box%2C according to Mary?,a bomb,1,3729
1567189198,97fe2791975a9561d498fc635bac2a0c,Question,5,2,story,10,What was really in the box?,a pillow,0,2640
1567189198,97fe2791975a9561d498fc635bac2a0c,Question,5,3,story,10,Was Mary right about that?,no,1,4155
1567189198,97fe2791975a9561d498fc635bac2a0c,Question,6,0,politics,NULL,How worried are you about bombs being sent to government officials?,a little worried,NULL,6465
1567189198,97fe2791975a9561d498fc635bac2a0c,Question,7,0,politics,NULL,How worried are you about taxpayer money being wasted?,very worried,NULL,2717
# Columns below this comment are as follows:
# 1. Time results were received.
# 2. MD5 hash of participant's IP address.
# 3. Controller name.
# 4. Item number.
# 5. Element number.
# 6. Type.
# 7. Group.
# 8. Field name.
# 9. Field value.
1567189198,97fe2791975a9561d498fc635bac2a0c,Form,8,0,subj_info,NULL,year,Mrs.
1567189198,97fe2791975a9561d498fc635bac2a0c,Form,8,0,subj_info,NULL,language,English
1567189198,97fe2791975a9561d498fc635bac2a0c,Form,8,0,subj_info,NULL,idturk,A1CIW92DX5V8FD
1567189198,97fe2791975a9561d498fc635bac2a0c,Form,8,0,subj_info,NULL,comment,Curious to know how answers vary among age groups!
1567189198,97fe2791975a9561d498fc635bac2a0c,Form,8,0,subj_info,NULL,sex,female
1567189198,97fe2791975a9561d498fc635bac2a0c,Form,8,0,subj_info,NULL,politics,democrat
1567189198,97fe2791975a9561d498fc635bac2a0c,Form,8,0,subj_info,NULL,_REACTION_TIME_,71364
#
# Results on Friday August 30 2019 18:21:13 UTC.
# USER AGENT: Mozilla/5.0 (Windows NT 10.0; Win64; x64) AppleWebKit/537.36 (KHTML, like Gecko) Chrome/76.0.3809.100 Safari/537.36
# Design number was non-random = 30
#
# Columns below this comment are as follows:
# 1. Time results were received.
# 2. MD5 hash of participant's IP address.
# 3. Controller name.
# 4. Item number.
# 5. Element number.
# 6. Type.
# 7. Group.
# 8. Field name.
# 9. Field value.
1567189273,9290f280b59c8c69da8244c99b35b8d9,Form,3,0,consent,NULL,,yes
1567189273,9290f280b59c8c69da8244c99b35b8d9,Form,3,0,consent,NULL,_REACTION_TIME_,42861
1567189273,9290f280b59c8c69da8244c99b35b8d9,Form,4,0,instructions,NULL,_REACTION_TIME_,3697
1567189273,9290f280b59c8c69da8244c99b35b8d9,Form,5,0,story,10,_REACTION_TIME_,19190
# Columns below this comment are as follows:
# 1. Time results were received.
# 2. MD5 hash of participant's IP address.
# 3. Controller name.
# 4. Item number.
# 5. Element number.
# 6. Type.
# 7. Group.
# 8. Question (NULL if none).
# 9. Answer.
# 10. Whether or not answer was correct (NULL if N/A).
# 11. Time taken to answer.
1567189273,9290f280b59c8c69da8244c99b35b8d9,Question,5,1,story,10,What's in the box%2C according to Mary?,a bomb,1,4228
1567189273,9290f280b59c8c69da8244c99b35b8d9,Question,5,2,story,10,What was really in the box?,a pillow,0,2392
1567189273,9290f280b59c8c69da8244c99b35b8d9,Question,5,3,story,10,Was Mary right about that?,no,1,3335
1567189273,9290f280b59c8c69da8244c99b35b8d9,Question,7,0,politics,NULL,How worried are you about taxpayer money being wasted?,not at all worried,NULL,10357
1567189273,9290f280b59c8c69da8244c99b35b8d9,Question,6,0,politics,NULL,How worried are you about bombs being sent to government officials?,very worried,NULL,5645
# Columns below this comment are as follows:
# 1. Time results were received.
# 2. MD5 hash of participant's IP address.
# 3. Controller name.
# 4. Item number.
# 5. Element number.
# 6. Type.
# 7. Group.
# 8. Field name.
# 9. Field value.
1567189273,9290f280b59c8c69da8244c99b35b8d9,Form,8,0,subj_info,NULL,year,1994
1567189273,9290f280b59c8c69da8244c99b35b8d9,Form,8,0,subj_info,NULL,language,English
1567189273,9290f280b59c8c69da8244c99b35b8d9,Form,8,0,subj_info,NULL,idturk,AKYLSO4RJ4XWG
1567189273,9290f280b59c8c69da8244c99b35b8d9,Form,8,0,subj_info,NULL,comment,
1567189273,9290f280b59c8c69da8244c99b35b8d9,Form,8,0,subj_info,NULL,sex,male
1567189273,9290f280b59c8c69da8244c99b35b8d9,Form,8,0,subj_info,NULL,politics,democrat
1567189273,9290f280b59c8c69da8244c99b35b8d9,Form,8,0,subj_info,NULL,_REACTION_TIME_,16020
#
# Results on Friday August 30 2019 18:21:30 UTC.
# USER AGENT: Mozilla/5.0 (Windows NT 10.0; Win64; x64) AppleWebKit/537.36 (KHTML, like Gecko) Chrome/76.0.3809.132 Safari/537.36
# Design number was non-random = 32
#
# Columns below this comment are as follows:
# 1. Time results were received.
# 2. MD5 hash of participant's IP address.
# 3. Controller name.
# 4. Item number.
# 5. Element number.
# 6. Type.
# 7. Group.
# 8. Field name.
# 9. Field value.
1567189291,c2423c1a4691cfbb18283e6733b501cf,Form,3,0,consent,NULL,,yes
1567189291,c2423c1a4691cfbb18283e6733b501cf,Form,3,0,consent,NULL,_REACTION_TIME_,6120
1567189291,c2423c1a4691cfbb18283e6733b501cf,Form,4,0,instructions,NULL,_REACTION_TIME_,1835
1567189291,c2423c1a4691cfbb18283e6733b501cf,Form,5,0,story,10,_REACTION_TIME_,19820
# Columns below this comment are as follows:
# 1. Time results were received.
# 2. MD5 hash of participant's IP address.
# 3. Controller name.
# 4. Item number.
# 5. Element number.
# 6. Type.
# 7. Group.
# 8. Question (NULL if none).
# 9. Answer.
# 10. Whether or not answer was correct (NULL if N/A).
# 11. Time taken to answer.
1567189291,c2423c1a4691cfbb18283e6733b501cf,Question,5,1,story,10,What's in the box%2C according to Mary?,a bomb,1,1982
1567189291,c2423c1a4691cfbb18283e6733b501cf,Question,5,2,story,10,What was really in the box?,a pillow,0,1508
1567189291,c2423c1a4691cfbb18283e6733b501cf,Question,5,3,story,10,Was Mary right about that?,no,1,2301
1567189291,c2423c1a4691cfbb18283e6733b501cf,Question,7,0,politics,NULL,How worried are you about taxpayer money being wasted?,very worried,NULL,3694
1567189291,c2423c1a4691cfbb18283e6733b501cf,Question,6,0,politics,NULL,How worried are you about bombs being sent to government officials?,very worried,NULL,2398
# Columns below this comment are as follows:
# 1. Time results were received.
# 2. MD5 hash of participant's IP address.
# 3. Controller name.
# 4. Item number.
# 5. Element number.
# 6. Type.
# 7. Group.
# 8. Field name.
# 9. Field value.
1567189291,c2423c1a4691cfbb18283e6733b501cf,Form,8,0,subj_info,NULL,year,1989
1567189291,c2423c1a4691cfbb18283e6733b501cf,Form,8,0,subj_info,NULL,language,English
1567189291,c2423c1a4691cfbb18283e6733b501cf,Form,8,0,subj_info,NULL,idturk,A2R7I850F6MKB9
1567189291,c2423c1a4691cfbb18283e6733b501cf,Form,8,0,subj_info,NULL,comment,
1567189291,c2423c1a4691cfbb18283e6733b501cf,Form,8,0,subj_info,NULL,sex,male
1567189291,c2423c1a4691cfbb18283e6733b501cf,Form,8,0,subj_info,NULL,politics,democrat
1567189291,c2423c1a4691cfbb18283e6733b501cf,Form,8,0,subj_info,NULL,_REACTION_TIME_,22734
#
# Results on Friday August 30 2019 18:22:46 UTC.
# USER AGENT: Mozilla/5.0 (X11; CrOS x86_64 12239.67.0) AppleWebKit/537.36 (KHTML, like Gecko) Chrome/76.0.3809.102 Safari/537.36
# Design number was non-random = 34
#
# Columns below this comment are as follows:
# 1. Time results were received.
# 2. MD5 hash of participant's IP address.
# 3. Controller name.
# 4. Item number.
# 5. Element number.
# 6. Type.
# 7. Group.
# 8. Field name.
# 9. Field value.
1567189366,b822776ba424b7a73faa93d39e6b9c57,Form,3,0,consent,NULL,,yes
1567189366,b822776ba424b7a73faa93d39e6b9c57,Form,3,0,consent,NULL,_REACTION_TIME_,2477
1567189366,b822776ba424b7a73faa93d39e6b9c57,Form,4,0,instructions,NULL,_REACTION_TIME_,1725
1567189366,b822776ba424b7a73faa93d39e6b9c57,Form,5,0,story,10,_REACTION_TIME_,32722
# Columns below this comment are as follows:
# 1. Time results were received.
# 2. MD5 hash of participant's IP address.
# 3. Controller name.
# 4. Item number.
# 5. Element number.
# 6. Type.
# 7. Group.
# 8. Question (NULL if none).
# 9. Answer.
# 10. Whether or not answer was correct (NULL if N/A).
# 11. Time taken to answer.
1567189366,b822776ba424b7a73faa93d39e6b9c57,Question,5,1,story,10,What's in the box%2C according to Mary?,a bomb,1,4509
1567189366,b822776ba424b7a73faa93d39e6b9c57,Question,5,2,story,10,What was really in the box?,a pillow,0,1527
1567189366,b822776ba424b7a73faa93d39e6b9c57,Question,5,3,story,10,Was Mary right about that?,no,1,2265
1567189366,b822776ba424b7a73faa93d39e6b9c57,Question,7,0,politics,NULL,How worried are you about taxpayer money being wasted?,very worried,NULL,2711
1567189366,b822776ba424b7a73faa93d39e6b9c57,Question,6,0,politics,NULL,How worried are you about bombs being sent to government officials?,very worried,NULL,2418
# Columns below this comment are as follows:
# 1. Time results were received.
# 2. MD5 hash of participant's IP address.
# 3. Controller name.
# 4. Item number.
# 5. Element number.
# 6. Type.
# 7. Group.
# 8. Field name.
# 9. Field value.
1567189366,b822776ba424b7a73faa93d39e6b9c57,Form,8,0,subj_info,NULL,year,1998
1567189366,b822776ba424b7a73faa93d39e6b9c57,Form,8,0,subj_info,NULL,language,english
1567189366,b822776ba424b7a73faa93d39e6b9c57,Form,8,0,subj_info,NULL,idturk,AYHZO44JGKIM0
1567189366,b822776ba424b7a73faa93d39e6b9c57,Form,8,0,subj_info,NULL,comment,
1567189366,b822776ba424b7a73faa93d39e6b9c57,Form,8,0,subj_info,NULL,sex,male
1567189366,b822776ba424b7a73faa93d39e6b9c57,Form,8,0,subj_info,NULL,politics,republican
1567189366,b822776ba424b7a73faa93d39e6b9c57,Form,8,0,subj_info,NULL,_REACTION_TIME_,15393
#
# Results on Friday August 30 2019 18:23:31 UTC.
# USER AGENT: Mozilla/5.0 (Windows NT 10.0; Win64; x64) AppleWebKit/537.36 (KHTML, like Gecko) Chrome/76.0.3809.132 Safari/537.36
# Design number was non-random = 34
#
# Columns below this comment are as follows:
# 1. Time results were received.
# 2. MD5 hash of participant's IP address.
# 3. Controller name.
# 4. Item number.
# 5. Element number.
# 6. Type.
# 7. Group.
# 8. Field name.
# 9. Field value.
1567189411,da51a06bfbcc6c7c0fd3ab059eafaa77,Form,3,0,consent,NULL,,yes
1567189411,da51a06bfbcc6c7c0fd3ab059eafaa77,Form,3,0,consent,NULL,_REACTION_TIME_,8224
1567189411,da51a06bfbcc6c7c0fd3ab059eafaa77,Form,4,0,instructions,NULL,_REACTION_TIME_,3594
1567189411,da51a06bfbcc6c7c0fd3ab059eafaa77,Form,5,0,story,10,_REACTION_TIME_,17376
# Columns below this comment are as follows:
# 1. Time results were received.
# 2. MD5 hash of participant's IP address.
# 3. Controller name.
# 4. Item number.
# 5. Element number.
# 6. Type.
# 7. Group.
# 8. Question (NULL if none).
# 9. Answer.
# 10. Whether or not answer was correct (NULL if N/A).
# 11. Time taken to answer.
1567189411,da51a06bfbcc6c7c0fd3ab059eafaa77,Question,5,1,story,10,What's in the box%2C according to Mary?,a bomb,1,3450
1567189411,da51a06bfbcc6c7c0fd3ab059eafaa77,Question,5,2,story,10,What was really in the box?,a pillow,0,1339
1567189411,da51a06bfbcc6c7c0fd3ab059eafaa77,Question,5,3,story,10,Was Mary right about that?,no,1,2945
1567189411,da51a06bfbcc6c7c0fd3ab059eafaa77,Question,7,0,politics,NULL,How worried are you about taxpayer money being wasted?,very worried,NULL,2897
1567189411,da51a06bfbcc6c7c0fd3ab059eafaa77,Question,6,0,politics,NULL,How worried are you about bombs being sent to government officials?,a little worried,NULL,2249
# Columns below this comment are as follows:
# 1. Time results were received.
# 2. MD5 hash of participant's IP address.
# 3. Controller name.
# 4. Item number.
# 5. Element number.
# 6. Type.
# 7. Group.
# 8. Field name.
# 9. Field value.
1567189411,da51a06bfbcc6c7c0fd3ab059eafaa77,Form,8,0,subj_info,NULL,year,1983
1567189411,da51a06bfbcc6c7c0fd3ab059eafaa77,Form,8,0,subj_info,NULL,language,ENGLISH
1567189411,da51a06bfbcc6c7c0fd3ab059eafaa77,Form,8,0,subj_info,NULL,idturk,A2CB7WDJ9V6VVN
1567189411,da51a06bfbcc6c7c0fd3ab059eafaa77,Form,8,0,subj_info,NULL,comment,
1567189411,da51a06bfbcc6c7c0fd3ab059eafaa77,Form,8,0,subj_info,NULL,sex,female
1567189411,da51a06bfbcc6c7c0fd3ab059eafaa77,Form,8,0,subj_info,NULL,politics,democrat
1567189411,da51a06bfbcc6c7c0fd3ab059eafaa77,Form,8,0,subj_info,NULL,_REACTION_TIME_,11084
#
# Results on Friday August 30 2019 18:24:31 UTC.
# USER AGENT: Mozilla/5.0 (Windows NT 10.0; Win64; x64; rv:68.0) Gecko/20100101 Firefox/68.0
# Design number was non-random = 35
#
# Columns below this comment are as follows:
# 1. Time results were received.
# 2. MD5 hash of participant's IP address.
# 3. Controller name.
# 4. Item number.
# 5. Element number.
# 6. Type.
# 7. Group.
# 8. Field name.
# 9. Field value.
1567189472,867fe2ac90bbd9f234852639f0123638,Form,3,0,consent,NULL,,yes
1567189472,867fe2ac90bbd9f234852639f0123638,Form,3,0,consent,NULL,_REACTION_TIME_,12747
1567189472,867fe2ac90bbd9f234852639f0123638,Form,4,0,instructions,NULL,_REACTION_TIME_,3342
1567189472,867fe2ac90bbd9f234852639f0123638,Form,5,0,story,10,_REACTION_TIME_,19253
# Columns below this comment are as follows:
# 1. Time results were received.
# 2. MD5 hash of participant's IP address.
# 3. Controller name.
# 4. Item number.
# 5. Element number.
# 6. Type.
# 7. Group.
# 8. Question (NULL if none).
# 9. Answer.
# 10. Whether or not answer was correct (NULL if N/A).
# 11. Time taken to answer.
1567189472,867fe2ac90bbd9f234852639f0123638,Question,5,1,story,10,What's in the box%2C according to Mary?,a bomb,1,2597
1567189472,867fe2ac90bbd9f234852639f0123638,Question,5,2,story,10,What was really in the box?,a pillow,0,1114
1567189472,867fe2ac90bbd9f234852639f0123638,Question,5,3,story,10,Was Mary right about that?,no,1,1855
1567189472,867fe2ac90bbd9f234852639f0123638,Question,7,0,politics,NULL,How worried are you about taxpayer money being wasted?,a little worried,NULL,2615
1567189472,867fe2ac90bbd9f234852639f0123638,Question,6,0,politics,NULL,How worried are you about bombs being sent to government officials?,not at all worried,NULL,2614
# Columns below this comment are as follows:
# 1. Time results were received.
# 2. MD5 hash of participant's IP address.
# 3. Controller name.
# 4. Item number.
# 5. Element number.
# 6. Type.
# 7. Group.
# 8. Field name.
# 9. Field value.
1567189472,867fe2ac90bbd9f234852639f0123638,Form,8,0,subj_info,NULL,year,1995
1567189472,867fe2ac90bbd9f234852639f0123638,Form,8,0,subj_info,NULL,language,English
1567189472,867fe2ac90bbd9f234852639f0123638,Form,8,0,subj_info,NULL,idturk,AIIMR53IQM4QW
1567189472,867fe2ac90bbd9f234852639f0123638,Form,8,0,subj_info,NULL,comment,
1567189472,867fe2ac90bbd9f234852639f0123638,Form,8,0,subj_info,NULL,sex,female
1567189472,867fe2ac90bbd9f234852639f0123638,Form,8,0,subj_info,NULL,politics,democrat
1567189472,867fe2ac90bbd9f234852639f0123638,Form,8,0,subj_info,NULL,_REACTION_TIME_,13771
#
# Results on Friday August 30 2019 18:28:18 UTC.
# USER AGENT: Mozilla/5.0 (Windows NT 10.0; Win64; x64) AppleWebKit/537.36 (KHTML, like Gecko) Chrome/76.0.3809.132 Safari/537.36
# Design number was non-random = 37
#
# Columns below this comment are as follows:
# 1. Time results were received.
# 2. MD5 hash of participant's IP address.
# 3. Controller name.
# 4. Item number.
# 5. Element number.
# 6. Type.
# 7. Group.
# 8. Field name.
# 9. Field value.
1567189699,005750ea9a24c7edcb5e4fe04d81682c,Form,3,0,consent,NULL,,yes
1567189699,005750ea9a24c7edcb5e4fe04d81682c,Form,3,0,consent,NULL,_REACTION_TIME_,3030
1567189699,005750ea9a24c7edcb5e4fe04d81682c,Form,4,0,instructions,NULL,_REACTION_TIME_,2199
1567189699,005750ea9a24c7edcb5e4fe04d81682c,Form,5,0,story,10,_REACTION_TIME_,10880
# Columns below this comment are as follows:
# 1. Time results were received.
# 2. MD5 hash of participant's IP address.
# 3. Controller name.
# 4. Item number.
# 5. Element number.
# 6. Type.
# 7. Group.
# 8. Question (NULL if none).
# 9. Answer.
# 10. Whether or not answer was correct (NULL if N/A).
# 11. Time taken to answer.
1567189699,005750ea9a24c7edcb5e4fe04d81682c,Question,5,1,story,10,What's in the box%2C according to Mary?,a bomb,1,2847
1567189699,005750ea9a24c7edcb5e4fe04d81682c,Question,5,2,story,10,What was really in the box?,a pillow,0,1379
1567189699,005750ea9a24c7edcb5e4fe04d81682c,Question,5,3,story,10,Was Mary right about that?,no,1,1649
1567189699,005750ea9a24c7edcb5e4fe04d81682c,Question,6,0,politics,NULL,How worried are you about bombs being sent to government officials?,not at all worried,NULL,3669
1567189699,005750ea9a24c7edcb5e4fe04d81682c,Question,7,0,politics,NULL,How worried are you about taxpayer money being wasted?,a little worried,NULL,2592
# Columns below this comment are as follows:
# 1. Time results were received.
# 2. MD5 hash of participant's IP address.
# 3. Controller name.
# 4. Item number.
# 5. Element number.
# 6. Type.
# 7. Group.
# 8. Field name.
# 9. Field value.
1567189699,005750ea9a24c7edcb5e4fe04d81682c,Form,8,0,subj_info,NULL,year,1996
1567189699,005750ea9a24c7edcb5e4fe04d81682c,Form,8,0,subj_info,NULL,language,English
1567189699,005750ea9a24c7edcb5e4fe04d81682c,Form,8,0,subj_info,NULL,idturk,A2PT6GHJXDTJTZ
1567189699,005750ea9a24c7edcb5e4fe04d81682c,Form,8,0,subj_info,NULL,comment,
1567189699,005750ea9a24c7edcb5e4fe04d81682c,Form,8,0,subj_info,NULL,sex,female
1567189699,005750ea9a24c7edcb5e4fe04d81682c,Form,8,0,subj_info,NULL,politics,democrat
1567189699,005750ea9a24c7edcb5e4fe04d81682c,Form,8,0,subj_info,NULL,_REACTION_TIME_,16029
#
# Results on Friday August 30 2019 18:30:35 UTC.
# USER AGENT: Mozilla/5.0 (Windows NT 6.1; Win64; x64) AppleWebKit/537.36 (KHTML, like Gecko) Chrome/76.0.3809.132 Safari/537.36
# Design number was non-random = 38
#
# Columns below this comment are as follows:
# 1. Time results were received.
# 2. MD5 hash of participant's IP address.
# 3. Controller name.
# 4. Item number.
# 5. Element number.
# 6. Type.
# 7. Group.
# 8. Field name.
# 9. Field value.
1567189835,e3a54f6622eaae12b90d1f10a723a912,Form,3,0,consent,NULL,,yes
1567189835,e3a54f6622eaae12b90d1f10a723a912,Form,3,0,consent,NULL,_REACTION_TIME_,2235
1567189835,e3a54f6622eaae12b90d1f10a723a912,Form,4,0,instructions,NULL,_REACTION_TIME_,3016
1567189835,e3a54f6622eaae12b90d1f10a723a912,Form,5,0,story,10,_REACTION_TIME_,19708
# Columns below this comment are as follows:
# 1. Time results were received.
# 2. MD5 hash of participant's IP address.
# 3. Controller name.
# 4. Item number.
# 5. Element number.
# 6. Type.
# 7. Group.
# 8. Question (NULL if none).
# 9. Answer.
# 10. Whether or not answer was correct (NULL if N/A).
# 11. Time taken to answer.
