#
# Results on Friday August 30 2019 18:01:29 UTC.
# USER AGENT: Mozilla/5.0 (Macintosh; Intel Mac OS X 10_13_6) AppleWebKit/537.36 (KHTML, like Gecko) Chrome/75.0.3770.142 Safari/537.36
# Design number was non-random = 0
#
# Columns below this comment are as follows:
# 1. Time results were received.
# 2. MD5 hash of participant's IP address.
# 3. Controller name.
# 4. Item number.
# 5. Element number.
# 6. Type.
# 7. Group.
# 8. Field name.
# 9. Field value.
1567188089,67bf44daa8f6d176893dae4ff1d014a2,Form,3,0,consent,NULL,,yes
1567188089,67bf44daa8f6d176893dae4ff1d014a2,Form,3,0,consent,NULL,_REACTION_TIME_,3979
1567188089,67bf44daa8f6d176893dae4ff1d014a2,Form,4,0,instructions,NULL,_REACTION_TIME_,2399
1567188089,67bf44daa8f6d176893dae4ff1d014a2,Form,5,0,story,16,_REACTION_TIME_,13776
# Columns below this comment are as follows:
# 1. Time results were received.
# 2. MD5 hash of participant's IP address.
# 3. Controller name.
# 4. Item number.
# 5. Element number.
# 6. Type.
# 7. Group.
# 8. Question (NULL if none).
# 9. Answer.
# 10. Whether or not answer was correct (NULL if N/A).
# 11. Time taken to answer.
1567188089,67bf44daa8f6d176893dae4ff1d014a2,Question,5,1,story,16,According to Mary%2C what's in the box?,a bomb,1,2532
1567188089,67bf44daa8f6d176893dae4ff1d014a2,Question,5,2,story,16,What was really in the box?,a pillow,0,1290
1567188089,67bf44daa8f6d176893dae4ff1d014a2,Question,5,3,story,16,Was Mary right about that?,no,1,2424
1567188089,67bf44daa8f6d176893dae4ff1d014a2,Question,7,0,politics,NULL,How worried are you about taxpayer money being wasted?,very worried,NULL,3221
1567188089,67bf44daa8f6d176893dae4ff1d014a2,Question,6,0,politics,NULL,How worried are you about bombs being sent to government officials?,a little worried,NULL,2554
# Columns below this comment are as follows:
# 1. Time results were received.
# 2. MD5 hash of participant's IP address.
# 3. Controller name.
# 4. Item number.
# 5. Element number.
# 6. Type.
# 7. Group.
# 8. Field name.
# 9. Field value.
1567188089,67bf44daa8f6d176893dae4ff1d014a2,Form,8,0,subj_info,NULL,year,1988
1567188089,67bf44daa8f6d176893dae4ff1d014a2,Form,8,0,subj_info,NULL,language,english
1567188089,67bf44daa8f6d176893dae4ff1d014a2,Form,8,0,subj_info,NULL,idturk,A10IZOZGBH42K
1567188089,67bf44daa8f6d176893dae4ff1d014a2,Form,8,0,subj_info,NULL,comment,
1567188089,67bf44daa8f6d176893dae4ff1d014a2,Form,8,0,subj_info,NULL,sex,male
1567188089,67bf44daa8f6d176893dae4ff1d014a2,Form,8,0,subj_info,NULL,politics,democrat
1567188089,67bf44daa8f6d176893dae4ff1d014a2,Form,8,0,subj_info,NULL,_REACTION_TIME_,13277
#
# Results on Friday August 30 2019 18:01:48 UTC.
# USER AGENT: Mozilla/5.0 (Windows NT 10.0; Win64; x64) AppleWebKit/537.36 (KHTML, like Gecko) Chrome/76.0.3809.100 Safari/537.36
# Design number was non-random = 0
#
# Columns below this comment are as follows:
# 1. Time results were received.
# 2. MD5 hash of participant's IP address.
# 3. Controller name.
# 4. Item number.
# 5. Element number.
# 6. Type.
# 7. Group.
# 8. Field name.
# 9. Field value.
1567188108,0f32ca994263d5b33271b681777d4b59,Form,3,0,consent,NULL,,yes
1567188108,0f32ca994263d5b33271b681777d4b59,Form,3,0,consent,NULL,_REACTION_TIME_,1831
1567188108,0f32ca994263d5b33271b681777d4b59,Form,4,0,instructions,NULL,_REACTION_TIME_,1475
1567188108,0f32ca994263d5b33271b681777d4b59,Form,5,0,story,16,_REACTION_TIME_,5602
# Columns below this comment are as follows:
# 1. Time results were received.
# 2. MD5 hash of participant's IP address.
# 3. Controller name.
# 4. Item number.
# 5. Element number.
# 6. Type.
# 7. Group.
# 8. Question (NULL if none).
# 9. Answer.
# 10. Whether or not answer was correct (NULL if N/A).
# 11. Time taken to answer.
1567188108,0f32ca994263d5b33271b681777d4b59,Question,5,1,story,16,According to Mary%2C what's in the box?,a bomb,1,1360
1567188108,0f32ca994263d5b33271b681777d4b59,Question,5,2,story,16,What was really in the box?,a pillow,0,2907
1567188108,0f32ca994263d5b33271b681777d4b59,Question,5,3,story,16,Was Mary right about that?,yes,0,1797
1567188108,0f32ca994263d5b33271b681777d4b59,Question,7,0,politics,NULL,How worried are you about taxpayer money being wasted?,very worried,NULL,2219
1567188108,0f32ca994263d5b33271b681777d4b59,Question,6,0,politics,NULL,How worried are you about bombs being sent to government officials?,not at all worried,NULL,2949
# Columns below this comment are as follows:
# 1. Time results were received.
# 2. MD5 hash of participant's IP address.
# 3. Controller name.
# 4. Item number.
# 5. Element number.
# 6. Type.
# 7. Group.
# 8. Field name.
# 9. Field value.
1567188108,0f32ca994263d5b33271b681777d4b59,Form,8,0,subj_info,NULL,year,1991
1567188108,0f32ca994263d5b33271b681777d4b59,Form,8,0,subj_info,NULL,language,English
1567188108,0f32ca994263d5b33271b681777d4b59,Form,8,0,subj_info,NULL,idturk,APB33P7IQEEWK
1567188108,0f32ca994263d5b33271b681777d4b59,Form,8,0,subj_info,NULL,comment,
1567188108,0f32ca994263d5b33271b681777d4b59,Form,8,0,subj_info,NULL,sex,male
1567188108,0f32ca994263d5b33271b681777d4b59,Form,8,0,subj_info,NULL,politics,republican
1567188108,0f32ca994263d5b33271b681777d4b59,Form,8,0,subj_info,NULL,_REACTION_TIME_,12645
#
# Results on Friday August 30 2019 18:01:54 UTC.
# USER AGENT: Mozilla/5.0 (Macintosh; Intel Mac OS X 10_12_6) AppleWebKit/537.36 (KHTML, like Gecko) Chrome/75.0.3770.142 Safari/537.36
# Design number was non-random = 0
#
# Columns below this comment are as follows:
# 1. Time results were received.
# 2. MD5 hash of participant's IP address.
# 3. Controller name.
# 4. Item number.
# 5. Element number.
# 6. Type.
# 7. Group.
# 8. Field name.
# 9. Field value.
1567188115,7b7598bfc0ddfdefb54dc8670913f451,Form,3,0,consent,NULL,,yes
1567188115,7b7598bfc0ddfdefb54dc8670913f451,Form,3,0,consent,NULL,_REACTION_TIME_,3252
1567188115,7b7598bfc0ddfdefb54dc8670913f451,Form,4,0,instructions,NULL,_REACTION_TIME_,2257
1567188115,7b7598bfc0ddfdefb54dc8670913f451,Form,5,0,story,16,_REACTION_TIME_,14008
# Columns below this comment are as follows:
# 1. Time results were received.
# 2. MD5 hash of participant's IP address.
# 3. Controller name.
# 4. Item number.
# 5. Element number.
# 6. Type.
# 7. Group.
# 8. Question (NULL if none).
# 9. Answer.
# 10. Whether or not answer was correct (NULL if N/A).
# 11. Time taken to answer.
1567188115,7b7598bfc0ddfdefb54dc8670913f451,Question,5,1,story,16,According to Mary%2C what's in the box?,a bomb,1,2665
1567188115,7b7598bfc0ddfdefb54dc8670913f451,Question,5,2,story,16,What was really in the box?,a pillow,0,1335
1567188115,7b7598bfc0ddfdefb54dc8670913f451,Question,5,3,story,16,Was Mary right about that?,no,1,1435
1567188115,7b7598bfc0ddfdefb54dc8670913f451,Question,7,0,politics,NULL,How worried are you about taxpayer money being wasted?,very worried,NULL,2218
1567188115,7b7598bfc0ddfdefb54dc8670913f451,Question,6,0,politics,NULL,How worried are you about bombs being sent to government officials?,a little worried,NULL,2209
# Columns below this comment are as follows:
# 1. Time results were received.
# 2. MD5 hash of participant's IP address.
# 3. Controller name.
# 4. Item number.
# 5. Element number.
# 6. Type.
# 7. Group.
# 8. Field name.
# 9. Field value.
1567188115,7b7598bfc0ddfdefb54dc8670913f451,Form,8,0,subj_info,NULL,year,1985
1567188115,7b7598bfc0ddfdefb54dc8670913f451,Form,8,0,subj_info,NULL,language,English
1567188115,7b7598bfc0ddfdefb54dc8670913f451,Form,8,0,subj_info,NULL,idturk,A1V0RDWOXP8N7
1567188115,7b7598bfc0ddfdefb54dc8670913f451,Form,8,0,subj_info,NULL,comment,
1567188115,7b7598bfc0ddfdefb54dc8670913f451,Form,8,0,subj_info,NULL,sex,male
1567188115,7b7598bfc0ddfdefb54dc8670913f451,Form,8,0,subj_info,NULL,politics,democrat
1567188115,7b7598bfc0ddfdefb54dc8670913f451,Form,8,0,subj_info,NULL,_REACTION_TIME_,21508
#
# Results on Friday August 30 2019 18:02:16 UTC.
# USER AGENT: Mozilla/5.0 (Macintosh; Intel Mac OS X 10.14; rv:68.0) Gecko/20100101 Firefox/68.0
# Design number was non-random = 0
#
# Columns below this comment are as follows:
# 1. Time results were received.
# 2. MD5 hash of participant's IP address.
# 3. Controller name.
# 4. Item number.
# 5. Element number.
# 6. Type.
# 7. Group.
# 8. Field name.
# 9. Field value.
1567188136,b5d58d466543bbe35205ff588ed4b68b,Form,3,0,consent,NULL,,yes
1567188136,b5d58d466543bbe35205ff588ed4b68b,Form,3,0,consent,NULL,_REACTION_TIME_,6240
1567188136,b5d58d466543bbe35205ff588ed4b68b,Form,4,0,instructions,NULL,_REACTION_TIME_,1903
1567188136,b5d58d466543bbe35205ff588ed4b68b,Form,5,0,story,16,_REACTION_TIME_,16081
# Columns below this comment are as follows:
# 1. Time results were received.
# 2. MD5 hash of participant's IP address.
# 3. Controller name.
# 4. Item number.
# 5. Element number.
# 6. Type.
# 7. Group.
# 8. Question (NULL if none).
# 9. Answer.
# 10. Whether or not answer was correct (NULL if N/A).
# 11. Time taken to answer.
1567188136,b5d58d466543bbe35205ff588ed4b68b,Question,5,1,story,16,According to Mary%2C what's in the box?,a pillow,0,2209
1567188136,b5d58d466543bbe35205ff588ed4b68b,Question,5,2,story,16,What was really in the box?,a pillow,0,1504
1567188136,b5d58d466543bbe35205ff588ed4b68b,Question,5,3,story,16,Was Mary right about that?,no,1,1949
1567188136,b5d58d466543bbe35205ff588ed4b68b,Question,7,0,politics,NULL,How worried are you about taxpayer money being wasted?,a little worried,NULL,2326
1567188136,b5d58d466543bbe35205ff588ed4b68b,Question,6,0,politics,NULL,How worried are you about bombs being sent to government officials?,a little worried,NULL,2910
# Columns below this comment are as follows:
# 1. Time results were received.
# 2. MD5 hash of participant's IP address.
# 3. Controller name.
# 4. Item number.
# 5. Element number.
# 6. Type.
# 7. Group.
# 8. Field name.
# 9. Field value.
1567188136,b5d58d466543bbe35205ff588ed4b68b,Form,8,0,subj_info,NULL,year,1981
1567188136,b5d58d466543bbe35205ff588ed4b68b,Form,8,0,subj_info,NULL,language,English
1567188136,b5d58d466543bbe35205ff588ed4b68b,Form,8,0,subj_info,NULL,idturk,A1T83SZBP2DN65
1567188136,b5d58d466543bbe35205ff588ed4b68b,Form,8,0,subj_info,NULL,comment,
1567188136,b5d58d466543bbe35205ff588ed4b68b,Form,8,0,subj_info,NULL,sex,female
1567188136,b5d58d466543bbe35205ff588ed4b68b,Form,8,0,subj_info,NULL,politics,democrat
1567188136,b5d58d466543bbe35205ff588ed4b68b,Form,8,0,subj_info,NULL,_REACTION_TIME_,16697
#
# Results on Friday August 30 2019 18:02:48 UTC.
# USER AGENT: Mozilla/5.0 (Windows NT 10.0; Win64; x64; rv:68.0) Gecko/20100101 Firefox/68.0
# Design number was non-random = 0
#
# Columns below this comment are as follows:
# 1. Time results were received.
# 2. MD5 hash of participant's IP address.
# 3. Controller name.
# 4. Item number.
# 5. Element number.
# 6. Type.
# 7. Group.
# 8. Field name.
# 9. Field value.
1567188169,ee0ae099d36322148711b6687fa10e6e,Form,3,0,consent,NULL,,yes
1567188169,ee0ae099d36322148711b6687fa10e6e,Form,3,0,consent,NULL,_REACTION_TIME_,6389
1567188169,ee0ae099d36322148711b6687fa10e6e,Form,4,0,instructions,NULL,_REACTION_TIME_,2104
1567188169,ee0ae099d36322148711b6687fa10e6e,Form,5,0,story,16,_REACTION_TIME_,22113
# Columns below this comment are as follows:
# 1. Time results were received.
# 2. MD5 hash of participant's IP address.
# 3. Controller name.
# 4. Item number.
# 5. Element number.
# 6. Type.
# 7. Group.
# 8. Question (NULL if none).
# 9. Answer.
# 10. Whether or not answer was correct (NULL if N/A).
# 11. Time taken to answer.
1567188169,ee0ae099d36322148711b6687fa10e6e,Question,5,1,story,16,According to Mary%2C what's in the box?,a bomb,1,2437
1567188169,ee0ae099d36322148711b6687fa10e6e,Question,5,2,story,16,What was really in the box?,a pillow,0,2496
1567188169,ee0ae099d36322148711b6687fa10e6e,Question,5,3,story,16,Was Mary right about that?,no,1,2258
1567188169,ee0ae099d36322148711b6687fa10e6e,Question,7,0,politics,NULL,How worried are you about taxpayer money being wasted?,a little worried,NULL,11505
1567188169,ee0ae099d36322148711b6687fa10e6e,Question,6,0,politics,NULL,How worried are you about bombs being sent to government officials?,very worried,NULL,16606
# Columns below this comment are as follows:
# 1. Time results were received.
# 2. MD5 hash of participant's IP address.
# 3. Controller name.
# 4. Item number.
# 5. Element number.
# 6. Type.
# 7. Group.
# 8. Field name.
# 9. Field value.
1567188169,ee0ae099d36322148711b6687fa10e6e,Form,8,0,subj_info,NULL,year,12/25/2000
1567188169,ee0ae099d36322148711b6687fa10e6e,Form,8,0,subj_info,NULL,language,English
1567188169,ee0ae099d36322148711b6687fa10e6e,Form,8,0,subj_info,NULL,idturk,A91TCVEBYZN6X
1567188169,ee0ae099d36322148711b6687fa10e6e,Form,8,0,subj_info,NULL,comment,
1567188169,ee0ae099d36322148711b6687fa10e6e,Form,8,0,subj_info,NULL,sex,male
1567188169,ee0ae099d36322148711b6687fa10e6e,Form,8,0,subj_info,NULL,politics,republican
1567188169,ee0ae099d36322148711b6687fa10e6e,Form,8,0,subj_info,NULL,_REACTION_TIME_,49172
#
# Results on Friday August 30 2019 18:03:04 UTC.
# USER AGENT: Mozilla/5.0 (Windows NT 10.0; Win64; x64) AppleWebKit/537.36 (KHTML, like Gecko) Chrome/75.0.3770.142 Safari/537.36 OPR/62.0.3331.116
# Design number was non-random = 4
#
# Columns below this comment are as follows:
# 1. Time results were received.
# 2. MD5 hash of participant's IP address.
# 3. Controller name.
# 4. Item number.
# 5. Element number.
# 6. Type.
# 7. Group.
# 8. Field name.
# 9. Field value.
1567188184,7a3ec6d874e4ea6692d74aa7828f0c9c,Form,3,0,consent,NULL,,yes
1567188184,7a3ec6d874e4ea6692d74aa7828f0c9c,Form,3,0,consent,NULL,_REACTION_TIME_,4036
1567188184,7a3ec6d874e4ea6692d74aa7828f0c9c,Form,4,0,instructions,NULL,_REACTION_TIME_,2500
1567188184,7a3ec6d874e4ea6692d74aa7828f0c9c,Form,5,0,story,16,_REACTION_TIME_,1790
# Columns below this comment are as follows:
# 1. Time results were received.
# 2. MD5 hash of participant's IP address.
# 3. Controller name.
# 4. Item number.
# 5. Element number.
# 6. Type.
# 7. Group.
# 8. Question (NULL if none).
# 9. Answer.
# 10. Whether or not answer was correct (NULL if N/A).
# 11. Time taken to answer.
1567188184,7a3ec6d874e4ea6692d74aa7828f0c9c,Question,5,1,story,16,According to Mary%2C what's in the box?,a bomb,1,2694
1567188184,7a3ec6d874e4ea6692d74aa7828f0c9c,Question,5,2,story,16,What was really in the box?,a pillow,0,1708
1567188184,7a3ec6d874e4ea6692d74aa7828f0c9c,Question,5,3,story,16,Was Mary right about that?,yes,0,4047
1567188184,7a3ec6d874e4ea6692d74aa7828f0c9c,Question,6,0,politics,NULL,How worried are you about bombs being sent to government officials?,not at all worried,NULL,3556
1567188184,7a3ec6d874e4ea6692d74aa7828f0c9c,Question,7,0,politics,NULL,How worried are you about taxpayer money being wasted?,not at all worried,NULL,2559
# Columns below this comment are as follows:
# 1. Time results were received.
# 2. MD5 hash of participant's IP address.
# 3. Controller name.
# 4. Item number.
# 5. Element number.
# 6. Type.
# 7. Group.
# 8. Field name.
# 9. Field value.
1567188184,7a3ec6d874e4ea6692d74aa7828f0c9c,Form,8,0,subj_info,NULL,year,1987
1567188184,7a3ec6d874e4ea6692d74aa7828f0c9c,Form,8,0,subj_info,NULL,language,English
1567188184,7a3ec6d874e4ea6692d74aa7828f0c9c,Form,8,0,subj_info,NULL,idturk,A2G6ISFMGZWCQN
1567188184,7a3ec6d874e4ea6692d74aa7828f0c9c,Form,8,0,subj_info,NULL,comment,
1567188184,7a3ec6d874e4ea6692d74aa7828f0c9c,Form,8,0,subj_info,NULL,sex,male
1567188184,7a3ec6d874e4ea6692d74aa7828f0c9c,Form,8,0,subj_info,NULL,politics,other
1567188184,7a3ec6d874e4ea6692d74aa7828f0c9c,Form,8,0,subj_info,NULL,_REACTION_TIME_,17951
#
# Results on Friday August 30 2019 18:03:35 UTC.
# USER AGENT: Mozilla/5.0 (Windows NT 10.0; Win64; x64) AppleWebKit/537.36 (KHTML, like Gecko) Chrome/76.0.3809.100 Safari/537.36
# Design number was non-random = 1
#
# Columns below this comment are as follows:
# 1. Time results were received.
# 2. MD5 hash of participant's IP address.
# 3. Controller name.
# 4. Item number.
# 5. Element number.
# 6. Type.
# 7. Group.
# 8. Field name.
# 9. Field value.
1567188215,f42089cdecc61c298fff2205301c5e12,Form,3,0,consent,NULL,,yes
1567188215,f42089cdecc61c298fff2205301c5e12,Form,3,0,consent,NULL,_REACTION_TIME_,9243
1567188215,f42089cdecc61c298fff2205301c5e12,Form,4,0,instructions,NULL,_REACTION_TIME_,1719
1567188215,f42089cdecc61c298fff2205301c5e12,Form,5,0,story,16,_REACTION_TIME_,68067
# Columns below this comment are as follows:
# 1. Time results were received.
# 2. MD5 hash of participant's IP address.
# 3. Controller name.
# 4. Item number.
# 5. Element number.
# 6. Type.
# 7. Group.
# 8. Question (NULL if none).
# 9. Answer.
# 10. Whether or not answer was correct (NULL if N/A).
# 11. Time taken to answer.
1567188215,f42089cdecc61c298fff2205301c5e12,Question,5,1,story,16,According to Mary%2C what's in the box?,a bomb,1,1890
1567188215,f42089cdecc61c298fff2205301c5e12,Question,5,2,story,16,What was really in the box?,a pillow,0,1278
1567188215,f42089cdecc61c298fff2205301c5e12,Question,5,3,story,16,Was Mary right about that?,no,1,2194
1567188215,f42089cdecc61c298fff2205301c5e12,Question,6,0,politics,NULL,How worried are you about bombs being sent to government officials?,not at all worried,NULL,3552
1567188215,f42089cdecc61c298fff2205301c5e12,Question,7,0,politics,NULL,How worried are you about taxpayer money being wasted?,a little worried,NULL,2181
# Columns below this comment are as follows:
# 1. Time results were received.
# 2. MD5 hash of participant's IP address.
# 3. Controller name.
# 4. Item number.
# 5. Element number.
# 6. Type.
# 7. Group.
# 8. Field name.
# 9. Field value.
1567188215,f42089cdecc61c298fff2205301c5e12,Form,8,0,subj_info,NULL,year,1971
1567188215,f42089cdecc61c298fff2205301c5e12,Form,8,0,subj_info,NULL,language,english
1567188215,f42089cdecc61c298fff2205301c5e12,Form,8,0,subj_info,NULL,idturk,A1HNNX44U3OF0X
1567188215,f42089cdecc61c298fff2205301c5e12,Form,8,0,subj_info,NULL,comment,
1567188215,f42089cdecc61c298fff2205301c5e12,Form,8,0,subj_info,NULL,sex,female
1567188215,f42089cdecc61c298fff2205301c5e12,Form,8,0,subj_info,NULL,politics,other
1567188215,f42089cdecc61c298fff2205301c5e12,Form,8,0,subj_info,NULL,_REACTION_TIME_,23009
#
# Results on Friday August 30 2019 18:03:55 UTC.
# USER AGENT: Mozilla/5.0 (Windows NT 6.3; Win64; x64) AppleWebKit/537.36 (KHTML, like Gecko) Chrome/76.0.3809.132 Safari/537.36
# Design number was non-random = 4
#
# Columns below this comment are as follows:
# 1. Time results were received.
# 2. MD5 hash of participant's IP address.
# 3. Controller name.
# 4. Item number.
# 5. Element number.
# 6. Type.
# 7. Group.
# 8. Field name.
# 9. Field value.
1567188236,982519077ae5c3bc5d438f0aa3f65495,Form,3,0,consent,NULL,,yes
1567188236,982519077ae5c3bc5d438f0aa3f65495,Form,3,0,consent,NULL,_REACTION_TIME_,11773
1567188236,982519077ae5c3bc5d438f0aa3f65495,Form,4,0,instructions,NULL,_REACTION_TIME_,2459
1567188236,982519077ae5c3bc5d438f0aa3f65495,Form,5,0,story,16,_REACTION_TIME_,17630
# Columns below this comment are as follows:
# 1. Time results were received.
# 2. MD5 hash of participant's IP address.
# 3. Controller name.
# 4. Item number.
# 5. Element number.
# 6. Type.
# 7. Group.
# 8. Question (NULL if none).
# 9. Answer.
# 10. Whether or not answer was correct (NULL if N/A).
# 11. Time taken to answer.
1567188236,982519077ae5c3bc5d438f0aa3f65495,Question,5,1,story,16,According to Mary%2C what's in the box?,a bomb,1,3196
1567188236,982519077ae5c3bc5d438f0aa3f65495,Question,5,2,story,16,What was really in the box?,a pillow,0,1630
1567188236,982519077ae5c3bc5d438f0aa3f65495,Question,5,3,story,16,Was Mary right about that?,no,1,2911
1567188236,982519077ae5c3bc5d438f0aa3f65495,Question,7,0,politics,NULL,How worried are you about taxpayer money being wasted?,a little worried,NULL,4575
1567188236,982519077ae5c3bc5d438f0aa3f65495,Question,6,0,politics,NULL,How worried are you about bombs being sent to government officials?,very worried,NULL,3871
# Columns below this comment are as follows:
# 1. Time results were received.
# 2. MD5 hash of participant's IP address.
# 3. Controller name.
# 4. Item number.
# 5. Element number.
# 6. Type.
# 7. Group.
# 8. Field name.
# 9. Field value.
1567188236,982519077ae5c3bc5d438f0aa3f65495,Form,8,0,subj_info,NULL,year,1972
1567188236,982519077ae5c3bc5d438f0aa3f65495,Form,8,0,subj_info,NULL,language,English
1567188236,982519077ae5c3bc5d438f0aa3f65495,Form,8,0,subj_info,NULL,idturk,A103RIJB54A2XY
1567188236,982519077ae5c3bc5d438f0aa3f65495,Form,8,0,subj_info,NULL,comment,
1567188236,982519077ae5c3bc5d438f0aa3f65495,Form,8,0,subj_info,NULL,sex,female
1567188236,982519077ae5c3bc5d438f0aa3f65495,Form,8,0,subj_info,NULL,politics,republican
1567188236,982519077ae5c3bc5d438f0aa3f65495,Form,8,0,subj_info,NULL,_REACTION_TIME_,22799
#
# Results on Friday August 30 2019 18:03:59 UTC.
# USER AGENT: Mozilla/5.0 (Windows NT 10.0; Win64; x64) AppleWebKit/537.36 (KHTML, like Gecko) Chrome/76.0.3809.100 Safari/537.36
# Design number was non-random = 5
#
# Columns below this comment are as follows:
# 1. Time results were received.
# 2. MD5 hash of participant's IP address.
# 3. Controller name.
# 4. Item number.
# 5. Element number.
# 6. Type.
# 7. Group.
# 8. Field name.
# 9. Field value.
1567188240,feffd20d8fdbec001a2233bc66cac088,Form,3,0,consent,NULL,,yes
1567188240,feffd20d8fdbec001a2233bc66cac088,Form,3,0,consent,NULL,_REACTION_TIME_,4278
1567188240,feffd20d8fdbec001a2233bc66cac088,Form,4,0,instructions,NULL,_REACTION_TIME_,9548
1567188240,feffd20d8fdbec001a2233bc66cac088,Form,5,0,story,16,_REACTION_TIME_,12698
# Columns below this comment are as follows:
# 1. Time results were received.
# 2. MD5 hash of participant's IP address.
# 3. Controller name.
# 4. Item number.
# 5. Element number.
# 6. Type.
# 7. Group.
# 8. Question (NULL if none).
# 9. Answer.
# 10. Whether or not answer was correct (NULL if N/A).
# 11. Time taken to answer.
1567188240,feffd20d8fdbec001a2233bc66cac088,Question,5,1,story,16,According to Mary%2C what's in the box?,a bomb,1,2859
1567188240,feffd20d8fdbec001a2233bc66cac088,Question,5,2,story,16,What was really in the box?,a pillow,0,1475
1567188240,feffd20d8fdbec001a2233bc66cac088,Question,5,3,story,16,Was Mary right about that?,no,1,1567
1567188240,feffd20d8fdbec001a2233bc66cac088,Question,6,0,politics,NULL,How worried are you about bombs being sent to government officials?,a little worried,NULL,2775
1567188240,feffd20d8fdbec001a2233bc66cac088,Question,7,0,politics,NULL,How worried are you about taxpayer money being wasted?,a little worried,NULL,3372
# Columns below this comment are as follows:
# 1. Time results were received.
# 2. MD5 hash of participant's IP address.
# 3. Controller name.
# 4. Item number.
# 5. Element number.
# 6. Type.
# 7. Group.
# 8. Field name.
# 9. Field value.
1567188240,feffd20d8fdbec001a2233bc66cac088,Form,8,0,subj_info,NULL,year,1980
1567188240,feffd20d8fdbec001a2233bc66cac088,Form,8,0,subj_info,NULL,language,english
1567188240,feffd20d8fdbec001a2233bc66cac088,Form,8,0,subj_info,NULL,idturk,A1T208Y507O4RS
1567188240,feffd20d8fdbec001a2233bc66cac088,Form,8,0,subj_info,NULL,comment,
1567188240,feffd20d8fdbec001a2233bc66cac088,Form,8,0,subj_info,NULL,sex,female
1567188240,feffd20d8fdbec001a2233bc66cac088,Form,8,0,subj_info,NULL,politics,democrat
1567188240,feffd20d8fdbec001a2233bc66cac088,Form,8,0,subj_info,NULL,_REACTION_TIME_,16394
#
# Results on Friday August 30 2019 18:04:07 UTC.
# USER AGENT: Mozilla/5.0 (Linux; Android 9; SM-A600A) AppleWebKit/537.36 (KHTML, like Gecko) Chrome/75.0.3770.143 Mobile Safari/537.36
# Design number was non-random = 2
#
# Columns below this comment are as follows:
# 1. Time results were received.
# 2. MD5 hash of participant's IP address.
# 3. Controller name.
# 4. Item number.
# 5. Element number.
# 6. Type.
# 7. Group.
# 8. Field name.
# 9. Field value.
1567188247,47e2b23a4d60ec3ebc4ad40125ea5730,Form,3,0,consent,NULL,,yes
1567188247,47e2b23a4d60ec3ebc4ad40125ea5730,Form,3,0,consent,NULL,_REACTION_TIME_,9894
1567188247,47e2b23a4d60ec3ebc4ad40125ea5730,Form,4,0,instructions,NULL,_REACTION_TIME_,8336
1567188247,47e2b23a4d60ec3ebc4ad40125ea5730,Form,5,0,story,16,_REACTION_TIME_,26205
# Columns below this comment are as follows:
# 1. Time results were received.
# 2. MD5 hash of participant's IP address.
# 3. Controller name.
# 4. Item number.
# 5. Element number.
# 6. Type.
# 7. Group.
# 8. Question (NULL if none).
# 9. Answer.
# 10. Whether or not answer was correct (NULL if N/A).
# 11. Time taken to answer.
1567188247,47e2b23a4d60ec3ebc4ad40125ea5730,Question,5,1,story,16,According to Mary%2C what's in the box?,a bomb,1,5842
1567188247,47e2b23a4d60ec3ebc4ad40125ea5730,Question,5,2,story,16,What was really in the box?,a pillow,0,2363
1567188247,47e2b23a4d60ec3ebc4ad40125ea5730,Question,5,3,story,16,Was Mary right about that?,no,1,4051
1567188247,47e2b23a4d60ec3ebc4ad40125ea5730,Question,7,0,politics,NULL,How worried are you about taxpayer money being wasted?,not at all worried,NULL,11598
1567188247,47e2b23a4d60ec3ebc4ad40125ea5730,Question,6,0,politics,NULL,How worried are you about bombs being sent to government officials?,a little worried,NULL,6573
# Columns below this comment are as follows:
# 1. Time results were received.
# 2. MD5 hash of participant's IP address.
# 3. Controller name.
# 4. Item number.
# 5. Element number.
# 6. Type.
# 7. Group.
# 8. Field name.
# 9. Field value.
1567188247,47e2b23a4d60ec3ebc4ad40125ea5730,Form,8,0,subj_info,NULL,year,1986
1567188247,47e2b23a4d60ec3ebc4ad40125ea5730,Form,8,0,subj_info,NULL,language,English
1567188247,47e2b23a4d60ec3ebc4ad40125ea5730,Form,8,0,subj_info,NULL,idturk,A1UEKB5YIB90CT
1567188247,47e2b23a4d60ec3ebc4ad40125ea5730,Form,8,0,subj_info,NULL,comment,
1567188247,47e2b23a4d60ec3ebc4ad40125ea5730,Form,8,0,subj_info,NULL,sex,female
1567188247,47e2b23a4d60ec3ebc4ad40125ea5730,Form,8,0,subj_info,NULL,politics,democrat
1567188247,47e2b23a4d60ec3ebc4ad40125ea5730,Form,8,0,subj_info,NULL,_REACTION_TIME_,56982
#
# Results on Friday August 30 2019 18:04:23 UTC.
# USER AGENT: Mozilla/5.0 (Macintosh; Intel Mac OS X 10_14_6) AppleWebKit/537.36 (KHTML, like Gecko) Chrome/76.0.3809.100 Safari/537.36
# Design number was non-random = 7
#
# Columns below this comment are as follows:
# 1. Time results were received.
# 2. MD5 hash of participant's IP address.
# 3. Controller name.
# 4. Item number.
# 5. Element number.
# 6. Type.
# 7. Group.
# 8. Field name.
# 9. Field value.
1567188264,d2da9edfc1d7e5fee96dcc754c7aaaf6,Form,3,0,consent,NULL,,yes
1567188264,d2da9edfc1d7e5fee96dcc754c7aaaf6,Form,3,0,consent,NULL,_REACTION_TIME_,2562
1567188264,d2da9edfc1d7e5fee96dcc754c7aaaf6,Form,4,0,instructions,NULL,_REACTION_TIME_,1169
1567188264,d2da9edfc1d7e5fee96dcc754c7aaaf6,Form,5,0,story,16,_REACTION_TIME_,11141
# Columns below this comment are as follows:
# 1. Time results were received.
# 2. MD5 hash of participant's IP address.
# 3. Controller name.
# 4. Item number.
# 5. Element number.
# 6. Type.
# 7. Group.
# 8. Question (NULL if none).
# 9. Answer.
# 10. Whether or not answer was correct (NULL if N/A).
# 11. Time taken to answer.
1567188264,d2da9edfc1d7e5fee96dcc754c7aaaf6,Question,5,1,story,16,According to Mary%2C what's in the box?,a bomb,1,2585
1567188264,d2da9edfc1d7e5fee96dcc754c7aaaf6,Question,5,2,story,16,What was really in the box?,a pillow,0,1394
1567188264,d2da9edfc1d7e5fee96dcc754c7aaaf6,Question,5,3,story,16,Was Mary right about that?,no,1,2461
1567188264,d2da9edfc1d7e5fee96dcc754c7aaaf6,Question,6,0,politics,NULL,How worried are you about bombs being sent to government officials?,not at all worried,NULL,4089
1567188264,d2da9edfc1d7e5fee96dcc754c7aaaf6,Question,7,0,politics,NULL,How worried are you about taxpayer money being wasted?,very worried,NULL,2164
# Columns below this comment are as follows:
# 1. Time results were received.
# 2. MD5 hash of participant's IP address.
# 3. Controller name.
# 4. Item number.
# 5. Element number.
# 6. Type.
# 7. Group.
# 8. Field name.
# 9. Field value.
1567188264,d2da9edfc1d7e5fee96dcc754c7aaaf6,Form,8,0,subj_info,NULL,year,1996
1567188264,d2da9edfc1d7e5fee96dcc754c7aaaf6,Form,8,0,subj_info,NULL,language,English
1567188264,d2da9edfc1d7e5fee96dcc754c7aaaf6,Form,8,0,subj_info,NULL,idturk,AA6RYE4V0IBKM
1567188264,d2da9edfc1d7e5fee96dcc754c7aaaf6,Form,8,0,subj_info,NULL,comment,
1567188264,d2da9edfc1d7e5fee96dcc754c7aaaf6,Form,8,0,subj_info,NULL,sex,male
1567188264,d2da9edfc1d7e5fee96dcc754c7aaaf6,Form,8,0,subj_info,NULL,politics,republican
1567188264,d2da9edfc1d7e5fee96dcc754c7aaaf6,Form,8,0,subj_info,NULL,_REACTION_TIME_,14887
#
# Results on Friday August 30 2019 18:05:06 UTC.
# USER AGENT: Mozilla/5.0 (Linux; Android 8.1.0; LM-X210(G)) AppleWebKit/537.36 (KHTML, like Gecko) Chrome/76.0.3809.111 Mobile Safari/537.36
# Design number was non-random = 10
#
# Columns below this comment are as follows:
# 1. Time results were received.
# 2. MD5 hash of participant's IP address.
# 3. Controller name.
# 4. Item number.
# 5. Element number.
# 6. Type.
# 7. Group.
# 8. Field name.
# 9. Field value.
1567188306,14fc31f56fdeea5fa77148f109b28975,Form,3,0,consent,NULL,,yes
1567188306,14fc31f56fdeea5fa77148f109b28975,Form,3,0,consent,NULL,_REACTION_TIME_,2962
1567188306,14fc31f56fdeea5fa77148f109b28975,Form,4,0,instructions,NULL,_REACTION_TIME_,1156
1567188306,14fc31f56fdeea5fa77148f109b28975,Form,5,0,story,16,_REACTION_TIME_,4457
# Columns below this comment are as follows:
# 1. Time results were received.
# 2. MD5 hash of participant's IP address.
# 3. Controller name.
# 4. Item number.
# 5. Element number.
# 6. Type.
# 7. Group.
# 8. Question (NULL if none).
# 9. Answer.
# 10. Whether or not answer was correct (NULL if N/A).
# 11. Time taken to answer.
1567188306,14fc31f56fdeea5fa77148f109b28975,Question,5,1,story,16,According to Mary%2C what's in the box?,a pillow,0,4385
1567188306,14fc31f56fdeea5fa77148f109b28975,Question,5,2,story,16,What was really in the box?,a pillow,0,2137
1567188306,14fc31f56fdeea5fa77148f109b28975,Question,5,3,story,16,Was Mary right about that?,yes,0,1996
1567188306,14fc31f56fdeea5fa77148f109b28975,Question,6,0,politics,NULL,How worried are you about bombs being sent to government officials?,not at all worried,NULL,1796
1567188306,14fc31f56fdeea5fa77148f109b28975,Question,7,0,politics,NULL,How worried are you about taxpayer money being wasted?,not at all worried,NULL,1262
# Columns below this comment are as follows:
# 1. Time results were received.
# 2. MD5 hash of participant's IP address.
# 3. Controller name.
# 4. Item number.
# 5. Element number.
# 6. Type.
# 7. Group.
# 8. Field name.
# 9. Field value.
1567188306,14fc31f56fdeea5fa77148f109b28975,Form,8,0,subj_info,NULL,year,1987
1567188306,14fc31f56fdeea5fa77148f109b28975,Form,8,0,subj_info,NULL,language,English
1567188306,14fc31f56fdeea5fa77148f109b28975,Form,8,0,subj_info,NULL,idturk,A30CGO77OY7WP0
1567188306,14fc31f56fdeea5fa77148f109b28975,Form,8,0,subj_info,NULL,comment,
1567188306,14fc31f56fdeea5fa77148f109b28975,Form,8,0,subj_info,NULL,sex,male
1567188306,14fc31f56fdeea5fa77148f109b28975,Form,8,0,subj_info,NULL,politics,republican
1567188306,14fc31f56fdeea5fa77148f109b28975,Form,8,0,subj_info,NULL,_REACTION_TIME_,28861
#
# Results on Friday August 30 2019 18:05:09 UTC.
# USER AGENT: Mozilla/5.0 (Windows NT 6.1; Win64; x64) AppleWebKit/537.36 (KHTML, like Gecko) Chrome/76.0.3809.100 Safari/537.36
# Design number was non-random = 11
#
# Columns below this comment are as follows:
# 1. Time results were received.
# 2. MD5 hash of participant's IP address.
# 3. Controller name.
# 4. Item number.
# 5. Element number.
# 6. Type.
# 7. Group.
# 8. Field name.
# 9. Field value.
1567188309,0365b6339dbf1fcfc707ad6d07ad1dbd,Form,3,0,consent,NULL,,yes
1567188309,0365b6339dbf1fcfc707ad6d07ad1dbd,Form,3,0,consent,NULL,_REACTION_TIME_,3353
1567188309,0365b6339dbf1fcfc707ad6d07ad1dbd,Form,4,0,instructions,NULL,_REACTION_TIME_,3439
1567188309,0365b6339dbf1fcfc707ad6d07ad1dbd,Form,5,0,story,16,_REACTION_TIME_,1357
# Columns below this comment are as follows:
# 1. Time results were received.
# 2. MD5 hash of participant's IP address.
# 3. Controller name.
# 4. Item number.
# 5. Element number.
# 6. Type.
# 7. Group.
# 8. Question (NULL if none).
# 9. Answer.
# 10. Whether or not answer was correct (NULL if N/A).
# 11. Time taken to answer.
1567188309,0365b6339dbf1fcfc707ad6d07ad1dbd,Question,5,1,story,16,According to Mary%2C what's in the box?,a pillow,0,2238
1567188309,0365b6339dbf1fcfc707ad6d07ad1dbd,Question,5,2,story,16,What was really in the box?,a bomb,1,1802
1567188309,0365b6339dbf1fcfc707ad6d07ad1dbd,Question,5,3,story,16,Was Mary right about that?,no,1,1745
1567188309,0365b6339dbf1fcfc707ad6d07ad1dbd,Question,7,0,politics,NULL,How worried are you about taxpayer money being wasted?,a little worried,NULL,1093
1567188309,0365b6339dbf1fcfc707ad6d07ad1dbd,Question,6,0,politics,NULL,How worried are you about bombs being sent to government officials?,a little worried,NULL,498
# Columns below this comment are as follows:
# 1. Time results were received.
# 2. MD5 hash of participant's IP address.
# 3. Controller name.
# 4. Item number.
# 5. Element number.
# 6. Type.
# 7. Group.
# 8. Field name.
# 9. Field value.
1567188309,0365b6339dbf1fcfc707ad6d07ad1dbd,Form,8,0,subj_info,NULL,year,1993
1567188309,0365b6339dbf1fcfc707ad6d07ad1dbd,Form,8,0,subj_info,NULL,language,english
1567188309,0365b6339dbf1fcfc707ad6d07ad1dbd,Form,8,0,subj_info,NULL,idturk,A296WX3QFEK7A0
1567188309,0365b6339dbf1fcfc707ad6d07ad1dbd,Form,8,0,subj_info,NULL,comment,
1567188309,0365b6339dbf1fcfc707ad6d07ad1dbd,Form,8,0,subj_info,NULL,sex,male
1567188309,0365b6339dbf1fcfc707ad6d07ad1dbd,Form,8,0,subj_info,NULL,politics,republican
1567188309,0365b6339dbf1fcfc707ad6d07ad1dbd,Form,8,0,subj_info,NULL,_REACTION_TIME_,12703
#
# Results on Friday August 30 2019 18:05:09 UTC.
# USER AGENT: Mozilla/5.0 (Windows NT 6.1; Win64; x64) AppleWebKit/537.36 (KHTML, like Gecko) Chrome/76.0.3809.100 Safari/537.36
# Design number was non-random = 8
#
# Columns below this comment are as follows:
# 1. Time results were received.
# 2. MD5 hash of participant's IP address.
# 3. Controller name.
# 4. Item number.
# 5. Element number.
# 6. Type.
# 7. Group.
# 8. Field name.
# 9. Field value.
1567188310,a60ff5f00e177b858a6780a40a368b81,Form,3,0,consent,NULL,,yes
1567188310,a60ff5f00e177b858a6780a40a368b81,Form,3,0,consent,NULL,_REACTION_TIME_,11402
1567188310,a60ff5f00e177b858a6780a40a368b81,Form,4,0,instructions,NULL,_REACTION_TIME_,2672
1567188310,a60ff5f00e177b858a6780a40a368b81,Form,5,0,story,16,_REACTION_TIME_,15220
# Columns below this comment are as follows:
# 1. Time results were received.
# 2. MD5 hash of participant's IP address.
# 3. Controller name.
# 4. Item number.
# 5. Element number.
# 6. Type.
# 7. Group.
# 8. Question (NULL if none).
# 9. Answer.
# 10. Whether or not answer was correct (NULL if N/A).
# 11. Time taken to answer.
1567188310,a60ff5f00e177b858a6780a40a368b81,Question,5,1,story,16,According to Mary%2C what's in the box?,a bomb,1,3058
1567188310,a60ff5f00e177b858a6780a40a368b81,Question,5,2,story,16,What was really in the box?,a pillow,0,1925
1567188310,a60ff5f00e177b858a6780a40a368b81,Question,5,3,story,16,Was Mary right about that?,no,1,4394
1567188310,a60ff5f00e177b858a6780a40a368b81,Question,6,0,politics,NULL,How worried are you about bombs being sent to government officials?,very worried,NULL,5724
1567188310,a60ff5f00e177b858a6780a40a368b81,Question,7,0,politics,NULL,How worried are you about taxpayer money being wasted?,very worried,NULL,3010
# Columns below this comment are as follows:
# 1. Time results were received.
# 2. MD5 hash of participant's IP address.
# 3. Controller name.
# 4. Item number.
# 5. Element number.
# 6. Type.
# 7. Group.
# 8. Field name.
# 9. Field value.
1567188310,a60ff5f00e177b858a6780a40a368b81,Form,8,0,subj_info,NULL,year,1989
1567188310,a60ff5f00e177b858a6780a40a368b81,Form,8,0,subj_info,NULL,language,English
1567188310,a60ff5f00e177b858a6780a40a368b81,Form,8,0,subj_info,NULL,idturk,A1FYQDCJ0S4Q10
1567188310,a60ff5f00e177b858a6780a40a368b81,Form,8,0,subj_info,NULL,comment,
1567188310,a60ff5f00e177b858a6780a40a368b81,Form,8,0,subj_info,NULL,sex,male
1567188310,a60ff5f00e177b858a6780a40a368b81,Form,8,0,subj_info,NULL,politics,other
1567188310,a60ff5f00e177b858a6780a40a368b81,Form,8,0,subj_info,NULL,_REACTION_TIME_,24127
#
# Results on Friday August 30 2019 18:06:33 UTC.
# USER AGENT: Mozilla/5.0 (X11; CrOS x86_64 12239.67.0) AppleWebKit/537.36 (KHTML, like Gecko) Chrome/76.0.3809.102 Safari/537.36
# Design number was non-random = 14
#
# Columns below this comment are as follows:
# 1. Time results were received.
# 2. MD5 hash of participant's IP address.
# 3. Controller name.
# 4. Item number.
# 5. Element number.
# 6. Type.
# 7. Group.
# 8. Field name.
# 9. Field value.
1567188394,305e4f2a57e758500480fd24a6066c8c,Form,3,0,consent,NULL,,yes
1567188394,305e4f2a57e758500480fd24a6066c8c,Form,3,0,consent,NULL,_REACTION_TIME_,3443
1567188394,305e4f2a57e758500480fd24a6066c8c,Form,4,0,instructions,NULL,_REACTION_TIME_,1604
1567188394,305e4f2a57e758500480fd24a6066c8c,Form,5,0,story,16,_REACTION_TIME_,22855
# Columns below this comment are as follows:
# 1. Time results were received.
# 2. MD5 hash of participant's IP address.
# 3. Controller name.
# 4. Item number.
# 5. Element number.
# 6. Type.
# 7. Group.
# 8. Question (NULL if none).
# 9. Answer.
# 10. Whether or not answer was correct (NULL if N/A).
# 11. Time taken to answer.
1567188394,305e4f2a57e758500480fd24a6066c8c,Question,5,1,story,16,According to Mary%2C what's in the box?,a pillow,0,2349
1567188394,305e4f2a57e758500480fd24a6066c8c,Question,5,2,story,16,What was really in the box?,a pillow,0,1184
1567188394,305e4f2a57e758500480fd24a6066c8c,Question,5,3,story,16,Was Mary right about that?,no,1,2859
1567188394,305e4f2a57e758500480fd24a6066c8c,Question,6,0,politics,NULL,How worried are you about bombs being sent to government officials?,a little worried,NULL,7813
1567188394,305e4f2a57e758500480fd24a6066c8c,Question,7,0,politics,NULL,How worried are you about taxpayer money being wasted?,a little worried,NULL,2742
# Columns below this comment are as follows:
# 1. Time results were received.
# 2. MD5 hash of participant's IP address.
# 3. Controller name.
# 4. Item number.
# 5. Element number.
# 6. Type.
# 7. Group.
# 8. Field name.
# 9. Field value.
1567188394,305e4f2a57e758500480fd24a6066c8c,Form,8,0,subj_info,NULL,year,1993
1567188394,305e4f2a57e758500480fd24a6066c8c,Form,8,0,subj_info,NULL,language,English
1567188394,305e4f2a57e758500480fd24a6066c8c,Form,8,0,subj_info,NULL,idturk,A390HBGGXFYJUB
1567188394,305e4f2a57e758500480fd24a6066c8c,Form,8,0,subj_info,NULL,comment,
1567188394,305e4f2a57e758500480fd24a6066c8c,Form,8,0,subj_info,NULL,sex,male
1567188394,305e4f2a57e758500480fd24a6066c8c,Form,8,0,subj_info,NULL,politics,democrat
1567188394,305e4f2a57e758500480fd24a6066c8c,Form,8,0,subj_info,NULL,_REACTION_TIME_,14262
#
# Results on Friday August 30 2019 18:07:31 UTC.
# USER AGENT: Mozilla/5.0 (Windows NT 10.0; Win64; x64) AppleWebKit/537.36 (KHTML, like Gecko) Chrome/76.0.3809.132 Safari/537.36
# Design number was non-random = 14
#
# Columns below this comment are as follows:
# 1. Time results were received.
# 2. MD5 hash of participant's IP address.
# 3. Controller name.
# 4. Item number.
# 5. Element number.
# 6. Type.
# 7. Group.
# 8. Field name.
# 9. Field value.
1567188452,1e8d08e204d2789f0a3b23575904a4ae,Form,3,0,consent,NULL,,yes
1567188452,1e8d08e204d2789f0a3b23575904a4ae,Form,3,0,consent,NULL,_REACTION_TIME_,5003
1567188452,1e8d08e204d2789f0a3b23575904a4ae,Form,4,0,instructions,NULL,_REACTION_TIME_,2890
1567188452,1e8d08e204d2789f0a3b23575904a4ae,Form,5,0,story,16,_REACTION_TIME_,15552
# Columns below this comment are as follows:
# 1. Time results were received.
# 2. MD5 hash of participant's IP address.
# 3. Controller name.
# 4. Item number.
# 5. Element number.
# 6. Type.
# 7. Group.
# 8. Question (NULL if none).
# 9. Answer.
# 10. Whether or not answer was correct (NULL if N/A).
# 11. Time taken to answer.
1567188452,1e8d08e204d2789f0a3b23575904a4ae,Question,5,1,story,16,According to Mary%2C what's in the box?,a bomb,1,2307
1567188452,1e8d08e204d2789f0a3b23575904a4ae,Question,5,2,story,16,What was really in the box?,a pillow,0,1330
1567188452,1e8d08e204d2789f0a3b23575904a4ae,Question,5,3,story,16,Was Mary right about that?,no,1,2586
1567188452,1e8d08e204d2789f0a3b23575904a4ae,Question,7,0,politics,NULL,How worried are you about taxpayer money being wasted?,a little worried,NULL,5518
1567188452,1e8d08e204d2789f0a3b23575904a4ae,Question,6,0,politics,NULL,How worried are you about bombs being sent to government officials?,not at all worried,NULL,2804
# Columns below this comment are as follows:
# 1. Time results were received.
# 2. MD5 hash of participant's IP address.
# 3. Controller name.
# 4. Item number.
# 5. Element number.
# 6. Type.
# 7. Group.
# 8. Field name.
# 9. Field value.
1567188452,1e8d08e204d2789f0a3b23575904a4ae,Form,8,0,subj_info,NULL,year,1975
1567188452,1e8d08e204d2789f0a3b23575904a4ae,Form,8,0,subj_info,NULL,language,English
1567188452,1e8d08e204d2789f0a3b23575904a4ae,Form,8,0,subj_info,NULL,idturk,A2VHULWCJJNBAL
1567188452,1e8d08e204d2789f0a3b23575904a4ae,Form,8,0,subj_info,NULL,comment,
1567188452,1e8d08e204d2789f0a3b23575904a4ae,Form,8,0,subj_info,NULL,sex,male
1567188452,1e8d08e204d2789f0a3b23575904a4ae,Form,8,0,subj_info,NULL,politics,other
1567188452,1e8d08e204d2789f0a3b23575904a4ae,Form,8,0,subj_info,NULL,_REACTION_TIME_,20694
#
# Results on Friday August 30 2019 18:07:35 UTC.
# USER AGENT: Mozilla/5.0 (Windows NT 10.0; Win64; x64) AppleWebKit/537.36 (KHTML, like Gecko) Chrome/76.0.3809.132 Safari/537.36
# Design number was non-random = 14
#
# Columns below this comment are as follows:
# 1. Time results were received.
# 2. MD5 hash of participant's IP address.
# 3. Controller name.
# 4. Item number.
# 5. Element number.
# 6. Type.
# 7. Group.
# 8. Field name.
# 9. Field value.
1567188456,4ebce342af3ed6edfd9031aa3cf2ca2d,Form,3,0,consent,NULL,,yes
1567188456,4ebce342af3ed6edfd9031aa3cf2ca2d,Form,3,0,consent,NULL,_REACTION_TIME_,6721
1567188456,4ebce342af3ed6edfd9031aa3cf2ca2d,Form,4,0,instructions,NULL,_REACTION_TIME_,4612
1567188456,4ebce342af3ed6edfd9031aa3cf2ca2d,Form,5,0,story,16,_REACTION_TIME_,23537
# Columns below this comment are as follows:
# 1. Time results were received.
# 2. MD5 hash of participant's IP address.
# 3. Controller name.
# 4. Item number.
# 5. Element number.
# 6. Type.
# 7. Group.
# 8. Question (NULL if none).
# 9. Answer.
# 10. Whether or not answer was correct (NULL if N/A).
# 11. Time taken to answer.
1567188456,4ebce342af3ed6edfd9031aa3cf2ca2d,Question,5,1,story,16,According to Mary%2C what's in the box?,a bomb,1,2421
1567188456,4ebce342af3ed6edfd9031aa3cf2ca2d,Question,5,2,story,16,What was really in the box?,a pillow,0,2161
1567188456,4ebce342af3ed6edfd9031aa3cf2ca2d,Question,5,3,story,16,Was Mary right about that?,no,1,4428
1567188456,4ebce342af3ed6edfd9031aa3cf2ca2d,Question,7,0,politics,NULL,How worried are you about taxpayer money being wasted?,very worried,NULL,4330
1567188456,4ebce342af3ed6edfd9031aa3cf2ca2d,Question,6,0,politics,NULL,How worried are you about bombs being sent to government officials?,a little worried,NULL,4122
# Columns below this comment are as follows:
# 1. Time results were received.
# 2. MD5 hash of participant's IP address.
# 3. Controller name.
# 4. Item number.
# 5. Element number.
# 6. Type.
# 7. Group.
# 8. Field name.
# 9. Field value.
1567188456,4ebce342af3ed6edfd9031aa3cf2ca2d,Form,8,0,subj_info,NULL,year,1971
1567188456,4ebce342af3ed6edfd9031aa3cf2ca2d,Form,8,0,subj_info,NULL,language,English
1567188456,4ebce342af3ed6edfd9031aa3cf2ca2d,Form,8,0,subj_info,NULL,idturk,AC2TZJY3V7YVU
1567188456,4ebce342af3ed6edfd9031aa3cf2ca2d,Form,8,0,subj_info,NULL,comment,
1567188456,4ebce342af3ed6edfd9031aa3cf2ca2d,Form,8,0,subj_info,NULL,sex,female
1567188456,4ebce342af3ed6edfd9031aa3cf2ca2d,Form,8,0,subj_info,NULL,politics,republican
1567188456,4ebce342af3ed6edfd9031aa3cf2ca2d,Form,8,0,subj_info,NULL,_REACTION_TIME_,30030
#
# Results on Friday August 30 2019 18:07:55 UTC.
# USER AGENT: Mozilla/5.0 (Windows NT 10.0; Win64; x64) AppleWebKit/537.36 (KHTML, like Gecko) Chrome/64.0.3282.140 Safari/537.36 Edge/18.17763
# Design number was non-random = 15
#
# Columns below this comment are as follows:
# 1. Time results were received.
# 2. MD5 hash of participant's IP address.
# 3. Controller name.
# 4. Item number.
# 5. Element number.
# 6. Type.
# 7. Group.
# 8. Field name.
# 9. Field value.
1567188476,eae2a1049328cf7a27b0fd4573318b0c,Form,3,0,consent,NULL,,yes
1567188476,eae2a1049328cf7a27b0fd4573318b0c,Form,3,0,consent,NULL,_REACTION_TIME_,10316
1567188476,eae2a1049328cf7a27b0fd4573318b0c,Form,4,0,instructions,NULL,_REACTION_TIME_,1927
1567188476,eae2a1049328cf7a27b0fd4573318b0c,Form,5,0,story,16,_REACTION_TIME_,13845
# Columns below this comment are as follows:
# 1. Time results were received.
# 2. MD5 hash of participant's IP address.
# 3. Controller name.
# 4. Item number.
# 5. Element number.
# 6. Type.
# 7. Group.
# 8. Question (NULL if none).
# 9. Answer.
# 10. Whether or not answer was correct (NULL if N/A).
# 11. Time taken to answer.
1567188476,eae2a1049328cf7a27b0fd4573318b0c,Question,5,1,story,16,According to Mary%2C what's in the box?,a pillow,0,2062
1567188476,eae2a1049328cf7a27b0fd4573318b0c,Question,5,2,story,16,What was really in the box?,a pillow,0,3355
1567188476,eae2a1049328cf7a27b0fd4573318b0c,Question,5,3,story,16,Was Mary right about that?,no,1,2633
1567188476,eae2a1049328cf7a27b0fd4573318b0c,Question,7,0,politics,NULL,How worried are you about taxpayer money being wasted?,a little worried,NULL,3751
1567188476,eae2a1049328cf7a27b0fd4573318b0c,Question,6,0,politics,NULL,How worried are you about bombs being sent to government officials?,a little worried,NULL,2454
# Columns below this comment are as follows:
# 1. Time results were received.
# 2. MD5 hash of participant's IP address.
# 3. Controller name.
# 4. Item number.
# 5. Element number.
# 6. Type.
# 7. Group.
# 8. Field name.
# 9. Field value.
1567188476,eae2a1049328cf7a27b0fd4573318b0c,Form,8,0,subj_info,NULL,year,1980
1567188476,eae2a1049328cf7a27b0fd4573318b0c,Form,8,0,subj_info,NULL,language,ENGLISH
1567188476,eae2a1049328cf7a27b0fd4573318b0c,Form,8,0,subj_info,NULL,idturk,A3NGERRLPQMDNI
1567188476,eae2a1049328cf7a27b0fd4573318b0c,Form,8,0,subj_info,NULL,comment,
1567188476,eae2a1049328cf7a27b0fd4573318b0c,Form,8,0,subj_info,NULL,sex,female
1567188476,eae2a1049328cf7a27b0fd4573318b0c,Form,8,0,subj_info,NULL,politics,other
1567188476,eae2a1049328cf7a27b0fd4573318b0c,Form,8,0,subj_info,NULL,_REACTION_TIME_,17129
#
# Results on Friday August 30 2019 18:08:36 UTC.
# USER AGENT: Mozilla/5.0 (Windows NT 10.0; Win64; x64) AppleWebKit/537.36 (KHTML, like Gecko) Chrome/76.0.3809.132 Safari/537.36
# Design number was non-random = 15
#
# Columns below this comment are as follows:
# 1. Time results were received.
# 2. MD5 hash of participant's IP address.
# 3. Controller name.
# 4. Item number.
# 5. Element number.
# 6. Type.
# 7. Group.
# 8. Field name.
# 9. Field value.
1567188517,bd7b0de907c08f1f0c743bd13beab79d,Form,3,0,consent,NULL,,yes
1567188517,bd7b0de907c08f1f0c743bd13beab79d,Form,3,0,consent,NULL,_REACTION_TIME_,9741
1567188517,bd7b0de907c08f1f0c743bd13beab79d,Form,4,0,instructions,NULL,_REACTION_TIME_,15141
1567188517,bd7b0de907c08f1f0c743bd13beab79d,Form,5,0,story,16,_REACTION_TIME_,13731
# Columns below this comment are as follows:
# 1. Time results were received.
# 2. MD5 hash of participant's IP address.
# 3. Controller name.
# 4. Item number.
# 5. Element number.
# 6. Type.
# 7. Group.
# 8. Question (NULL if none).
# 9. Answer.
# 10. Whether or not answer was correct (NULL if N/A).
# 11. Time taken to answer.
1567188517,bd7b0de907c08f1f0c743bd13beab79d,Question,5,1,story,16,According to Mary%2C what's in the box?,a bomb,1,2811
1567188517,bd7b0de907c08f1f0c743bd13beab79d,Question,5,2,story,16,What was really in the box?,a pillow,0,1421
1567188517,bd7b0de907c08f1f0c743bd13beab79d,Question,5,3,story,16,Was Mary right about that?,yes,0,2337
1567188517,bd7b0de907c08f1f0c743bd13beab79d,Question,7,0,politics,NULL,How worried are you about taxpayer money being wasted?,very worried,NULL,3607
1567188517,bd7b0de907c08f1f0c743bd13beab79d,Question,6,0,politics,NULL,How worried are you about bombs being sent to government officials?,a little worried,NULL,3893
# Columns below this comment are as follows:
# 1. Time results were received.
# 2. MD5 hash of participant's IP address.
# 3. Controller name.
# 4. Item number.
# 5. Element number.
# 6. Type.
# 7. Group.
# 8. Field name.
# 9. Field value.
1567188517,bd7b0de907c08f1f0c743bd13beab79d,Form,8,0,subj_info,NULL,year,1989
1567188517,bd7b0de907c08f1f0c743bd13beab79d,Form,8,0,subj_info,NULL,language,English
1567188517,bd7b0de907c08f1f0c743bd13beab79d,Form,8,0,subj_info,NULL,idturk,AG4QIX4E1Q77B
1567188517,bd7b0de907c08f1f0c743bd13beab79d,Form,8,0,subj_info,NULL,comment,
1567188517,bd7b0de907c08f1f0c743bd13beab79d,Form,8,0,subj_info,NULL,sex,male
1567188517,bd7b0de907c08f1f0c743bd13beab79d,Form,8,0,subj_info,NULL,politics,republican
1567188517,bd7b0de907c08f1f0c743bd13beab79d,Form,8,0,subj_info,NULL,_REACTION_TIME_,19208
#
# Results on Friday August 30 2019 18:09:11 UTC.
# USER AGENT: Mozilla/5.0 (Windows NT 10.0; Win64; x64) AppleWebKit/537.36 (KHTML, like Gecko) Chrome/76.0.3809.132 Safari/537.36
# Design number was non-random = 18
#
# Columns below this comment are as follows:
# 1. Time results were received.
# 2. MD5 hash of participant's IP address.
# 3. Controller name.
# 4. Item number.
# 5. Element number.
# 6. Type.
# 7. Group.
# 8. Field name.
# 9. Field value.
1567188551,0b847e42e39e27005596cb0361df492f,Form,3,0,consent,NULL,,yes
1567188551,0b847e42e39e27005596cb0361df492f,Form,3,0,consent,NULL,_REACTION_TIME_,14410
1567188551,0b847e42e39e27005596cb0361df492f,Form,4,0,instructions,NULL,_REACTION_TIME_,2643
1567188551,0b847e42e39e27005596cb0361df492f,Form,5,0,story,16,_REACTION_TIME_,9399
# Columns below this comment are as follows:
# 1. Time results were received.
# 2. MD5 hash of participant's IP address.
# 3. Controller name.
# 4. Item number.
# 5. Element number.
# 6. Type.
# 7. Group.
# 8. Question (NULL if none).
# 9. Answer.
# 10. Whether or not answer was correct (NULL if N/A).
# 11. Time taken to answer.
1567188551,0b847e42e39e27005596cb0361df492f,Question,5,1,story,16,According to Mary%2C what's in the box?,a bomb,1,9829
1567188551,0b847e42e39e27005596cb0361df492f,Question,5,2,story,16,What was really in the box?,a pillow,0,4134
1567188551,0b847e42e39e27005596cb0361df492f,Question,5,3,story,16,Was Mary right about that?,no,1,2631
1567188551,0b847e42e39e27005596cb0361df492f,Question,6,0,politics,NULL,How worried are you about bombs being sent to government officials?,not at all worried,NULL,3927
1567188551,0b847e42e39e27005596cb0361df492f,Question,7,0,politics,NULL,How worried are you about taxpayer money being wasted?,very worried,NULL,2983
# Columns below this comment are as follows:
# 1. Time results were received.
# 2. MD5 hash of participant's IP address.
# 3. Controller name.
# 4. Item number.
# 5. Element number.
# 6. Type.
# 7. Group.
# 8. Field name.
# 9. Field value.
1567188551,0b847e42e39e27005596cb0361df492f,Form,8,0,subj_info,NULL,year,1980
1567188551,0b847e42e39e27005596cb0361df492f,Form,8,0,subj_info,NULL,language,English
1567188551,0b847e42e39e27005596cb0361df492f,Form,8,0,subj_info,NULL,idturk,A290QC50BZND9I
1567188551,0b847e42e39e27005596cb0361df492f,Form,8,0,subj_info,NULL,comment,None
1567188551,0b847e42e39e27005596cb0361df492f,Form,8,0,subj_info,NULL,sex,male
1567188551,0b847e42e39e27005596cb0361df492f,Form,8,0,subj_info,NULL,politics,republican
1567188551,0b847e42e39e27005596cb0361df492f,Form,8,0,subj_info,NULL,_REACTION_TIME_,24439
#
# Results on Friday August 30 2019 18:10:25 UTC.
# USER AGENT: Mozilla/5.0 (Windows NT 6.3; Win64; x64) AppleWebKit/537.36 (KHTML, like Gecko) Chrome/76.0.3809.132 Safari/537.36
# Design number was non-random = 18
#
# Columns below this comment are as follows:
# 1. Time results were received.
# 2. MD5 hash of participant's IP address.
# 3. Controller name.
# 4. Item number.
# 5. Element number.
# 6. Type.
# 7. Group.
# 8. Field name.
# 9. Field value.
1567188625,f67916221567d8f894abc88aad57a304,Form,3,0,consent,NULL,,yes
1567188625,f67916221567d8f894abc88aad57a304,Form,3,0,consent,NULL,_REACTION_TIME_,6655
1567188625,f67916221567d8f894abc88aad57a304,Form,4,0,instructions,NULL,_REACTION_TIME_,3803
1567188625,f67916221567d8f894abc88aad57a304,Form,5,0,story,16,_REACTION_TIME_,28251
# Columns below this comment are as follows:
# 1. Time results were received.
# 2. MD5 hash of participant's IP address.
# 3. Controller name.
# 4. Item number.
# 5. Element number.
# 6. Type.
# 7. Group.
# 8. Question (NULL if none).
# 9. Answer.
# 10. Whether or not answer was correct (NULL if N/A).
# 11. Time taken to answer.
1567188625,f67916221567d8f894abc88aad57a304,Question,5,1,story,16,According to Mary%2C what's in the box?,a bomb,1,3840
1567188625,f67916221567d8f894abc88aad57a304,Question,5,2,story,16,What was really in the box?,a pillow,0,2526
1567188625,f67916221567d8f894abc88aad57a304,Question,5,3,story,16,Was Mary right about that?,no,1,3918
1567188625,f67916221567d8f894abc88aad57a304,Question,7,0,politics,NULL,How worried are you about taxpayer money being wasted?,very worried,NULL,8495
1567188625,f67916221567d8f894abc88aad57a304,Question,6,0,politics,NULL,How worried are you about bombs being sent to government officials?,not at all worried,NULL,4822
# Columns below this comment are as follows:
# 1. Time results were received.
# 2. MD5 hash of participant's IP address.
# 3. Controller name.
# 4. Item number.
# 5. Element number.
# 6. Type.
# 7. Group.
# 8. Field name.
# 9. Field value.
1567188625,f67916221567d8f894abc88aad57a304,Form,8,0,subj_info,NULL,year,1981
1567188625,f67916221567d8f894abc88aad57a304,Form,8,0,subj_info,NULL,language,English
1567188625,f67916221567d8f894abc88aad57a304,Form,8,0,subj_info,NULL,idturk,A20DBHCEPSXU4S
1567188625,f67916221567d8f894abc88aad57a304,Form,8,0,subj_info,NULL,comment,n/a
1567188625,f67916221567d8f894abc88aad57a304,Form,8,0,subj_info,NULL,sex,male
1567188625,f67916221567d8f894abc88aad57a304,Form,8,0,subj_info,NULL,politics,other
1567188625,f67916221567d8f894abc88aad57a304,Form,8,0,subj_info,NULL,_REACTION_TIME_,50724
#
# Results on Friday August 30 2019 18:10:44 UTC.
# USER AGENT: Mozilla/5.0 (Windows NT 10.0; Win64; x64) AppleWebKit/537.36 (KHTML, like Gecko) Chrome/76.0.3809.100 Safari/537.36
# Design number was non-random = 19
#
# Columns below this comment are as follows:
# 1. Time results were received.
# 2. MD5 hash of participant's IP address.
# 3. Controller name.
# 4. Item number.
# 5. Element number.
# 6. Type.
# 7. Group.
# 8. Field name.
# 9. Field value.
1567188644,94f010998bb5de7ef49c08e9609fe5a7,Form,3,0,consent,NULL,,yes
1567188644,94f010998bb5de7ef49c08e9609fe5a7,Form,3,0,consent,NULL,_REACTION_TIME_,59425
1567188644,94f010998bb5de7ef49c08e9609fe5a7,Form,4,0,instructions,NULL,_REACTION_TIME_,1522
1567188644,94f010998bb5de7ef49c08e9609fe5a7,Form,5,0,story,16,_REACTION_TIME_,10094
# Columns below this comment are as follows:
# 1. Time results were received.
# 2. MD5 hash of participant's IP address.
# 3. Controller name.
# 4. Item number.
# 5. Element number.
# 6. Type.
# 7. Group.
# 8. Question (NULL if none).
# 9. Answer.
# 10. Whether or not answer was correct (NULL if N/A).
# 11. Time taken to answer.
1567188644,94f010998bb5de7ef49c08e9609fe5a7,Question,5,1,story,16,According to Mary%2C what's in the box?,a bomb,1,2867
1567188644,94f010998bb5de7ef49c08e9609fe5a7,Question,5,2,story,16,What was really in the box?,a pillow,0,1148
1567188644,94f010998bb5de7ef49c08e9609fe5a7,Question,5,3,story,16,Was Mary right about that?,no,1,1662
1567188644,94f010998bb5de7ef49c08e9609fe5a7,Question,6,0,politics,NULL,How worried are you about bombs being sent to government officials?,not at all worried,NULL,2790
1567188644,94f010998bb5de7ef49c08e9609fe5a7,Question,7,0,politics,NULL,How worried are you about taxpayer money being wasted?,very worried,NULL,2558
# Columns below this comment are as follows:
# 1. Time results were received.
# 2. MD5 hash of participant's IP address.
# 3. Controller name.
# 4. Item number.
# 5. Element number.
# 6. Type.
# 7. Group.
# 8. Field name.
# 9. Field value.
1567188644,94f010998bb5de7ef49c08e9609fe5a7,Form,8,0,subj_info,NULL,year,1994
1567188644,94f010998bb5de7ef49c08e9609fe5a7,Form,8,0,subj_info,NULL,language,English
1567188644,94f010998bb5de7ef49c08e9609fe5a7,Form,8,0,subj_info,NULL,idturk,A2Z0A7BFD0OAOI
1567188644,94f010998bb5de7ef49c08e9609fe5a7,Form,8,0,subj_info,NULL,comment,
1567188644,94f010998bb5de7ef49c08e9609fe5a7,Form,8,0,subj_info,NULL,sex,male
1567188644,94f010998bb5de7ef49c08e9609fe5a7,Form,8,0,subj_info,NULL,politics,democrat
1567188644,94f010998bb5de7ef49c08e9609fe5a7,Form,8,0,subj_info,NULL,_REACTION_TIME_,15125
#
# Results on Friday August 30 2019 18:11:16 UTC.
# USER AGENT: Mozilla/5.0 (Linux; Android 9; SAMSUNG SM-G950U Build/PPR1.180610.011) AppleWebKit/537.36 (KHTML, like Gecko) SamsungBrowser/9.4 Chrome/67.0.3396.87 Mobile Safari/537.36
# Design number was non-random = 20
#
# Columns below this comment are as follows:
# 1. Time results were received.
# 2. MD5 hash of participant's IP address.
# 3. Controller name.
# 4. Item number.
# 5. Element number.
# 6. Type.
# 7. Group.
# 8. Field name.
# 9. Field value.
1567188677,34206c6c224857985ac6931da985b914,Form,3,0,consent,NULL,,yes
1567188677,34206c6c224857985ac6931da985b914,Form,3,0,consent,NULL,_REACTION_TIME_,15587
1567188677,34206c6c224857985ac6931da985b914,Form,4,0,instructions,NULL,_REACTION_TIME_,5552
1567188677,34206c6c224857985ac6931da985b914,Form,5,0,story,16,_REACTION_TIME_,22380
# Columns below this comment are as follows:
# 1. Time results were received.
# 2. MD5 hash of participant's IP address.
# 3. Controller name.
# 4. Item number.
# 5. Element number.
# 6. Type.
# 7. Group.
# 8. Question (NULL if none).
# 9. Answer.
# 10. Whether or not answer was correct (NULL if N/A).
# 11. Time taken to answer.
1567188677,34206c6c224857985ac6931da985b914,Question,5,1,story,16,According to Mary%2C what's in the box?,a bomb,1,4391
1567188677,34206c6c224857985ac6931da985b914,Question,5,2,story,16,What was really in the box?,a pillow,0,1838
1567188677,34206c6c224857985ac6931da985b914,Question,5,3,story,16,Was Mary right about that?,no,1,2933
1567188677,34206c6c224857985ac6931da985b914,Question,7,0,politics,NULL,How worried are you about taxpayer money being wasted?,very worried,NULL,7592
1567188677,34206c6c224857985ac6931da985b914,Question,6,0,politics,NULL,How worried are you about bombs being sent to government officials?,a little worried,NULL,4846
# Columns below this comment are as follows:
# 1. Time results were received.
# 2. MD5 hash of participant's IP address.
# 3. Controller name.
# 4. Item number.
# 5. Element number.
# 6. Type.
# 7. Group.
# 8. Field name.
# 9. Field value.
1567188677,34206c6c224857985ac6931da985b914,Form,8,0,subj_info,NULL,year,1981
1567188677,34206c6c224857985ac6931da985b914,Form,8,0,subj_info,NULL,language,English
1567188677,34206c6c224857985ac6931da985b914,Form,8,0,subj_info,NULL,idturk,A25JS1O0STVJW7
1567188677,34206c6c224857985ac6931da985b914,Form,8,0,subj_info,NULL,comment,
1567188677,34206c6c224857985ac6931da985b914,Form,8,0,subj_info,NULL,sex,female
1567188677,34206c6c224857985ac6931da985b914,Form,8,0,subj_info,NULL,politics,other
1567188677,34206c6c224857985ac6931da985b914,Form,8,0,subj_info,NULL,_REACTION_TIME_,25534
#
# Results on Friday August 30 2019 18:12:18 UTC.
# USER AGENT: Mozilla/5.0 (Windows NT 6.1; Win64; x64) AppleWebKit/537.36 (KHTML, like Gecko) Chrome/76.0.3809.132 Safari/537.36
# Design number was non-random = 21
#
# Columns below this comment are as follows:
# 1. Time results were received.
# 2. MD5 hash of participant's IP address.
# 3. Controller name.
# 4. Item number.
# 5. Element number.
# 6. Type.
# 7. Group.
# 8. Field name.
# 9. Field value.
1567188738,6a7017b7477b1f43cc19b03d3be60d02,Form,3,0,consent,NULL,,yes
1567188738,6a7017b7477b1f43cc19b03d3be60d02,Form,3,0,consent,NULL,_REACTION_TIME_,15466
1567188738,6a7017b7477b1f43cc19b03d3be60d02,Form,4,0,instructions,NULL,_REACTION_TIME_,3097
1567188738,6a7017b7477b1f43cc19b03d3be60d02,Form,5,0,story,16,_REACTION_TIME_,36470
# Columns below this comment are as follows:
# 1. Time results were received.
# 2. MD5 hash of participant's IP address.
# 3. Controller name.
# 4. Item number.
# 5. Element number.
# 6. Type.
# 7. Group.
# 8. Question (NULL if none).
# 9. Answer.
# 10. Whether or not answer was correct (NULL if N/A).
# 11. Time taken to answer.
1567188738,6a7017b7477b1f43cc19b03d3be60d02,Question,5,1,story,16,According to Mary%2C what's in the box?,a bomb,1,4041
1567188738,6a7017b7477b1f43cc19b03d3be60d02,Question,5,2,story,16,What was really in the box?,a pillow,0,1688
1567188738,6a7017b7477b1f43cc19b03d3be60d02,Question,5,3,story,16,Was Mary right about that?,no,1,6158
1567188738,6a7017b7477b1f43cc19b03d3be60d02,Question,7,0,politics,NULL,How worried are you about taxpayer money being wasted?,very worried,NULL,8510
1567188738,6a7017b7477b1f43cc19b03d3be60d02,Question,6,0,politics,NULL,How worried are you about bombs being sent to government officials?,not at all worried,NULL,8000
# Columns below this comment are as follows:
# 1. Time results were received.
# 2. MD5 hash of participant's IP address.
# 3. Controller name.
# 4. Item number.
# 5. Element number.
# 6. Type.
# 7. Group.
# 8. Field name.
# 9. Field value.
1567188738,6a7017b7477b1f43cc19b03d3be60d02,Form,8,0,subj_info,NULL,year,1988
1567188738,6a7017b7477b1f43cc19b03d3be60d02,Form,8,0,subj_info,NULL,language,English
1567188738,6a7017b7477b1f43cc19b03d3be60d02,Form,8,0,subj_info,NULL,idturk,A1PNYLOKED8FWF
1567188738,6a7017b7477b1f43cc19b03d3be60d02,Form,8,0,subj_info,NULL,comment,
1567188738,6a7017b7477b1f43cc19b03d3be60d02,Form,8,0,subj_info,NULL,sex,male
1567188738,6a7017b7477b1f43cc19b03d3be60d02,Form,8,0,subj_info,NULL,politics,other
1567188738,6a7017b7477b1f43cc19b03d3be60d02,Form,8,0,subj_info,NULL,_REACTION_TIME_,24229
#
# Results on Friday August 30 2019 18:13:07 UTC.
# USER AGENT: Mozilla/5.0 (Windows NT 6.1; Win64; x64) AppleWebKit/537.36 (KHTML, like Gecko) Chrome/76.0.3809.100 Safari/537.36
# Design number was non-random = 23
#
# Columns below this comment are as follows:
# 1. Time results were received.
# 2. MD5 hash of participant's IP address.
# 3. Controller name.
# 4. Item number.
# 5. Element number.
# 6. Type.
# 7. Group.
# 8. Field name.
# 9. Field value.
1567188788,334af556cc432faeefefb77d9656347e,Form,3,0,consent,NULL,,yes
1567188788,334af556cc432faeefefb77d9656347e,Form,3,0,consent,NULL,_REACTION_TIME_,10016
1567188788,334af556cc432faeefefb77d9656347e,Form,4,0,instructions,NULL,_REACTION_TIME_,2725
1567188788,334af556cc432faeefefb77d9656347e,Form,5,0,story,16,_REACTION_TIME_,21529
# Columns below this comment are as follows:
# 1. Time results were received.
# 2. MD5 hash of participant's IP address.
# 3. Controller name.
# 4. Item number.
# 5. Element number.
# 6. Type.
# 7. Group.
# 8. Question (NULL if none).
# 9. Answer.
# 10. Whether or not answer was correct (NULL if N/A).
# 11. Time taken to answer.
1567188788,334af556cc432faeefefb77d9656347e,Question,5,1,story,16,According to Mary%2C what's in the box?,a bomb,1,9065
1567188788,334af556cc432faeefefb77d9656347e,Question,5,2,story,16,What was really in the box?,a pillow,0,1834
1567188788,334af556cc432faeefefb77d9656347e,Question,5,3,story,16,Was Mary right about that?,no,1,8179
1567188788,334af556cc432faeefefb77d9656347e,Question,6,0,politics,NULL,How worried are you about bombs being sent to government officials?,not at all worried,NULL,5263
1567188788,334af556cc432faeefefb77d9656347e,Question,7,0,politics,NULL,How worried are you about taxpayer money being wasted?,a little worried,NULL,3389
# Columns below this comment are as follows:
# 1. Time results were received.
# 2. MD5 hash of participant's IP address.
# 3. Controller name.
# 4. Item number.
# 5. Element number.
# 6. Type.
# 7. Group.
# 8. Field name.
# 9. Field value.
1567188788,334af556cc432faeefefb77d9656347e,Form,8,0,subj_info,NULL,year,1984
1567188788,334af556cc432faeefefb77d9656347e,Form,8,0,subj_info,NULL,language,English
1567188788,334af556cc432faeefefb77d9656347e,Form,8,0,subj_info,NULL,idturk,A3HL2LL0LEPZT8
1567188788,334af556cc432faeefefb77d9656347e,Form,8,0,subj_info,NULL,comment,
1567188788,334af556cc432faeefefb77d9656347e,Form,8,0,subj_info,NULL,sex,male
1567188788,334af556cc432faeefefb77d9656347e,Form,8,0,subj_info,NULL,politics,democrat
1567188788,334af556cc432faeefefb77d9656347e,Form,8,0,subj_info,NULL,_REACTION_TIME_,19544
#
# Results on Friday August 30 2019 18:14:26 UTC.
# USER AGENT: Mozilla/5.0 (Windows NT 10.0; Win64; x64) AppleWebKit/537.36 (KHTML, like Gecko) Chrome/72.0.3626.121 Safari/537.36
# Design number was non-random = 24
#
# Columns below this comment are as follows:
# 1. Time results were received.
# 2. MD5 hash of participant's IP address.
# 3. Controller name.
# 4. Item number.
# 5. Element number.
# 6. Type.
# 7. Group.
# 8. Field name.
# 9. Field value.
1567188866,6a3973a95c83f9f3307116495e8ddf03,Form,3,0,consent,NULL,,yes
1567188866,6a3973a95c83f9f3307116495e8ddf03,Form,3,0,consent,NULL,_REACTION_TIME_,3917
1567188866,6a3973a95c83f9f3307116495e8ddf03,Form,4,0,instructions,NULL,_REACTION_TIME_,1757
1567188866,6a3973a95c83f9f3307116495e8ddf03,Form,5,0,story,16,_REACTION_TIME_,30125
# Columns below this comment are as follows:
# 1. Time results were received.
# 2. MD5 hash of participant's IP address.
# 3. Controller name.
# 4. Item number.
# 5. Element number.
# 6. Type.
# 7. Group.
# 8. Question (NULL if none).
# 9. Answer.
# 10. Whether or not answer was correct (NULL if N/A).
# 11. Time taken to answer.
1567188866,6a3973a95c83f9f3307116495e8ddf03,Question,5,1,story,16,According to Mary%2C what's in the box?,a bomb,1,2854
1567188866,6a3973a95c83f9f3307116495e8ddf03,Question,5,2,story,16,What was really in the box?,a pillow,0,1515
1567188866,6a3973a95c83f9f3307116495e8ddf03,Question,5,3,story,16,Was Mary right about that?,yes,0,5472
1567188866,6a3973a95c83f9f3307116495e8ddf03,Question,7,0,politics,NULL,How worried are you about taxpayer money being wasted?,a little worried,NULL,4977
1567188866,6a3973a95c83f9f3307116495e8ddf03,Question,6,0,politics,NULL,How worried are you about bombs being sent to government officials?,very worried,NULL,3636
# Columns below this comment are as follows:
# 1. Time results were received.
# 2. MD5 hash of participant's IP address.
# 3. Controller name.
# 4. Item number.
# 5. Element number.
# 6. Type.
# 7. Group.
# 8. Field name.
# 9. Field value.
1567188866,6a3973a95c83f9f3307116495e8ddf03,Form,8,0,subj_info,NULL,year,1991
1567188866,6a3973a95c83f9f3307116495e8ddf03,Form,8,0,subj_info,NULL,language,english
1567188866,6a3973a95c83f9f3307116495e8ddf03,Form,8,0,subj_info,NULL,idturk, COPIEDA224650AUQYEF3
1567188866,6a3973a95c83f9f3307116495e8ddf03,Form,8,0,subj_info,NULL,comment,
1567188866,6a3973a95c83f9f3307116495e8ddf03,Form,8,0,subj_info,NULL,sex,female
1567188866,6a3973a95c83f9f3307116495e8ddf03,Form,8,0,subj_info,NULL,politics,other
1567188866,6a3973a95c83f9f3307116495e8ddf03,Form,8,0,subj_info,NULL,_REACTION_TIME_,46979
#
# Results on Friday August 30 2019 18:15:27 UTC.
# USER AGENT: Mozilla/5.0 (Windows NT 10.0; Win64; x64) AppleWebKit/537.36 (KHTML, like Gecko) Chrome/76.0.3809.132 Safari/537.36
# Design number was non-random = 25
#
# Columns below this comment are as follows:
# 1. Time results were received.
# 2. MD5 hash of participant's IP address.
# 3. Controller name.
# 4. Item number.
# 5. Element number.
# 6. Type.
# 7. Group.
# 8. Field name.
# 9. Field value.
1567188927,ca24a18f1a794907961426da0081563d,Form,3,0,consent,NULL,,yes
1567188927,ca24a18f1a794907961426da0081563d,Form,3,0,consent,NULL,_REACTION_TIME_,12606
1567188927,ca24a18f1a794907961426da0081563d,Form,4,0,instructions,NULL,_REACTION_TIME_,2019
1567188927,ca24a18f1a794907961426da0081563d,Form,5,0,story,16,_REACTION_TIME_,27004
# Columns below this comment are as follows:
# 1. Time results were received.
# 2. MD5 hash of participant's IP address.
# 3. Controller name.
# 4. Item number.
# 5. Element number.
# 6. Type.
# 7. Group.
# 8. Question (NULL if none).
# 9. Answer.
# 10. Whether or not answer was correct (NULL if N/A).
# 11. Time taken to answer.
1567188927,ca24a18f1a794907961426da0081563d,Question,5,1,story,16,According to Mary%2C what's in the box?,a bomb,1,2502
1567188927,ca24a18f1a794907961426da0081563d,Question,5,2,story,16,What was really in the box?,a pillow,0,1985
1567188927,ca24a18f1a794907961426da0081563d,Question,5,3,story,16,Was Mary right about that?,no,1,2702
1567188927,ca24a18f1a794907961426da0081563d,Question,7,0,politics,NULL,How worried are you about taxpayer money being wasted?,a little worried,NULL,5957
1567188927,ca24a18f1a794907961426da0081563d,Question,6,0,politics,NULL,How worried are you about bombs being sent to government officials?,very worried,NULL,6337
# Columns below this comment are as follows:
# 1. Time results were received.
# 2. MD5 hash of participant's IP address.
# 3. Controller name.
# 4. Item number.
# 5. Element number.
# 6. Type.
# 7. Group.
# 8. Field name.
# 9. Field value.
1567188927,ca24a18f1a794907961426da0081563d,Form,8,0,subj_info,NULL,year,1962
1567188927,ca24a18f1a794907961426da0081563d,Form,8,0,subj_info,NULL,language,english
1567188927,ca24a18f1a794907961426da0081563d,Form,8,0,subj_info,NULL,idturk,A160X70DIV96VM
1567188927,ca24a18f1a794907961426da0081563d,Form,8,0,subj_info,NULL,comment,
1567188927,ca24a18f1a794907961426da0081563d,Form,8,0,subj_info,NULL,sex,female
1567188927,ca24a18f1a794907961426da0081563d,Form,8,0,subj_info,NULL,politics,democrat
1567188927,ca24a18f1a794907961426da0081563d,Form,8,0,subj_info,NULL,_REACTION_TIME_,22086
#
# Results on Friday August 30 2019 18:16:09 UTC.
# USER AGENT: Mozilla/5.0 (Windows NT 10.0; Win64; x64; rv:68.0) Gecko/20100101 Firefox/68.0
# Design number was non-random = 26
#
# Columns below this comment are as follows:
# 1. Time results were received.
# 2. MD5 hash of participant's IP address.
# 3. Controller name.
# 4. Item number.
# 5. Element number.
# 6. Type.
# 7. Group.
# 8. Field name.
# 9. Field value.
1567188970,dcac29ff374ad6fc935b2f51b4229449,Form,3,0,consent,NULL,,yes
1567188970,dcac29ff374ad6fc935b2f51b4229449,Form,3,0,consent,NULL,_REACTION_TIME_,11568
1567188970,dcac29ff374ad6fc935b2f51b4229449,Form,4,0,instructions,NULL,_REACTION_TIME_,6848
1567188970,dcac29ff374ad6fc935b2f51b4229449,Form,5,0,story,16,_REACTION_TIME_,18272
# Columns below this comment are as follows:
# 1. Time results were received.
# 2. MD5 hash of participant's IP address.
# 3. Controller name.
# 4. Item number.
# 5. Element number.
# 6. Type.
# 7. Group.
# 8. Question (NULL if none).
# 9. Answer.
# 10. Whether or not answer was correct (NULL if N/A).
# 11. Time taken to answer.
1567188970,dcac29ff374ad6fc935b2f51b4229449,Question,5,1,story,16,According to Mary%2C what's in the box?,a bomb,1,1968
1567188970,dcac29ff374ad6fc935b2f51b4229449,Question,5,2,story,16,What was really in the box?,a bomb,1,1314
1567188970,dcac29ff374ad6fc935b2f51b4229449,Question,5,3,story,16,Was Mary right about that?,no,1,1791
1567188970,dcac29ff374ad6fc935b2f51b4229449,Question,6,0,politics,NULL,How worried are you about bombs being sent to government officials?,not at all worried,NULL,3897
1567188970,dcac29ff374ad6fc935b2f51b4229449,Question,7,0,politics,NULL,How worried are you about taxpayer money being wasted?,a little worried,NULL,8757
# Columns below this comment are as follows:
# 1. Time results were received.
# 2. MD5 hash of participant's IP address.
# 3. Controller name.
# 4. Item number.
# 5. Element number.
# 6. Type.
# 7. Group.
# 8. Field name.
# 9. Field value.
1567188970,dcac29ff374ad6fc935b2f51b4229449,Form,8,0,subj_info,NULL,year,1979
1567188970,dcac29ff374ad6fc935b2f51b4229449,Form,8,0,subj_info,NULL,language,english
1567188970,dcac29ff374ad6fc935b2f51b4229449,Form,8,0,subj_info,NULL,idturk,A1TNS228AVVV09
1567188970,dcac29ff374ad6fc935b2f51b4229449,Form,8,0,subj_info,NULL,comment,
1567188970,dcac29ff374ad6fc935b2f51b4229449,Form,8,0,subj_info,NULL,sex,female
1567188970,dcac29ff374ad6fc935b2f51b4229449,Form,8,0,subj_info,NULL,politics,other
1567188970,dcac29ff374ad6fc935b2f51b4229449,Form,8,0,subj_info,NULL,_REACTION_TIME_,16676
#
# Results on Friday August 30 2019 18:17:54 UTC.
# USER AGENT: Mozilla/5.0 (Windows NT 10.0; Win64; x64) AppleWebKit/537.36 (KHTML, like Gecko) Chrome/76.0.3809.132 Safari/537.36
# Design number was non-random = 28
#
# Columns below this comment are as follows:
# 1. Time results were received.
# 2. MD5 hash of participant's IP address.
# 3. Controller name.
# 4. Item number.
# 5. Element number.
# 6. Type.
# 7. Group.
# 8. Field name.
# 9. Field value.
1567189074,afd00e03315e903c8c22b2158807363d,Form,3,0,consent,NULL,,yes
1567189074,afd00e03315e903c8c22b2158807363d,Form,3,0,consent,NULL,_REACTION_TIME_,2693
1567189074,afd00e03315e903c8c22b2158807363d,Form,4,0,instructions,NULL,_REACTION_TIME_,947
1567189074,afd00e03315e903c8c22b2158807363d,Form,5,0,story,16,_REACTION_TIME_,14398
# Columns below this comment are as follows:
# 1. Time results were received.
# 2. MD5 hash of participant's IP address.
# 3. Controller name.
# 4. Item number.
# 5. Element number.
# 6. Type.
# 7. Group.
# 8. Question (NULL if none).
# 9. Answer.
# 10. Whether or not answer was correct (NULL if N/A).
# 11. Time taken to answer.
1567189074,afd00e03315e903c8c22b2158807363d,Question,5,1,story,16,According to Mary%2C what's in the box?,a bomb,1,2123
1567189074,afd00e03315e903c8c22b2158807363d,Question,5,2,story,16,What was really in the box?,a pillow,0,973
1567189074,afd00e03315e903c8c22b2158807363d,Question,5,3,story,16,Was Mary right about that?,no,1,1302
1567189074,afd00e03315e903c8c22b2158807363d,Question,6,0,politics,NULL,How worried are you about bombs being sent to government officials?,not at all worried,NULL,2710
1567189074,afd00e03315e903c8c22b2158807363d,Question,7,0,politics,NULL,How worried are you about taxpayer money being wasted?,very worried,NULL,1966
# Columns below this comment are as follows:
# 1. Time results were received.
# 2. MD5 hash of participant's IP address.
# 3. Controller name.
# 4. Item number.
# 5. Element number.
# 6. Type.
# 7. Group.
# 8. Field name.
# 9. Field value.
1567189074,afd00e03315e903c8c22b2158807363d,Form,8,0,subj_info,NULL,year,1995
1567189074,afd00e03315e903c8c22b2158807363d,Form,8,0,subj_info,NULL,language,English
1567189074,afd00e03315e903c8c22b2158807363d,Form,8,0,subj_info,NULL,idturk,A2FJDUJZ38B9XL
1567189074,afd00e03315e903c8c22b2158807363d,Form,8,0,subj_info,NULL,comment,
1567189074,afd00e03315e903c8c22b2158807363d,Form,8,0,subj_info,NULL,sex,male
1567189074,afd00e03315e903c8c22b2158807363d,Form,8,0,subj_info,NULL,politics,democrat
1567189074,afd00e03315e903c8c22b2158807363d,Form,8,0,subj_info,NULL,_REACTION_TIME_,18887
#
# Results on Friday August 30 2019 18:17:54 UTC.
# USER AGENT: Mozilla/5.0 (X11; Linux x86_64) AppleWebKit/537.36 (KHTML, like Gecko) Ubuntu Chromium/76.0.3809.100 Chrome/76.0.3809.100 Safari/537.36
# Design number was non-random = 28
#
# Columns below this comment are as follows:
# 1. Time results were received.
# 2. MD5 hash of participant's IP address.
# 3. Controller name.
# 4. Item number.
# 5. Element number.
# 6. Type.
# 7. Group.
# 8. Field name.
# 9. Field value.
1567189075,befbaf843f65707ff8708cceae212e2c,Form,3,0,consent,NULL,,yes
1567189075,befbaf843f65707ff8708cceae212e2c,Form,3,0,consent,NULL,_REACTION_TIME_,25330
1567189075,befbaf843f65707ff8708cceae212e2c,Form,4,0,instructions,NULL,_REACTION_TIME_,5124
1567189075,befbaf843f65707ff8708cceae212e2c,Form,5,0,story,16,_REACTION_TIME_,17496
# Columns below this comment are as follows:
# 1. Time results were received.
# 2. MD5 hash of participant's IP address.
# 3. Controller name.
# 4. Item number.
# 5. Element number.
# 6. Type.
# 7. Group.
# 8. Question (NULL if none).
# 9. Answer.
# 10. Whether or not answer was correct (NULL if N/A).
# 11. Time taken to answer.
1567189075,befbaf843f65707ff8708cceae212e2c,Question,5,1,story,16,According to Mary%2C what's in the box?,a pillow,0,2485
1567189075,befbaf843f65707ff8708cceae212e2c,Question,5,2,story,16,What was really in the box?,a pillow,0,4537
1567189075,befbaf843f65707ff8708cceae212e2c,Question,5,3,story,16,Was Mary right about that?,no,1,2445
1567189075,befbaf843f65707ff8708cceae212e2c,Question,6,0,politics,NULL,How worried are you about bombs being sent to government officials?,a little worried,NULL,5798
1567189075,befbaf843f65707ff8708cceae212e2c,Question,7,0,politics,NULL,How worried are you about taxpayer money being wasted?,very worried,NULL,3568
# Columns below this comment are as follows:
# 1. Time results were received.
# 2. MD5 hash of participant's IP address.
# 3. Controller name.
# 4. Item number.
# 5. Element number.
# 6. Type.
# 7. Group.
# 8. Field name.
# 9. Field value.
1567189075,befbaf843f65707ff8708cceae212e2c,Form,8,0,subj_info,NULL,year,1950
1567189075,befbaf843f65707ff8708cceae212e2c,Form,8,0,subj_info,NULL,language,English
1567189075,befbaf843f65707ff8708cceae212e2c,Form,8,0,subj_info,NULL,idturk,A7ERZELTAMWL5
1567189075,befbaf843f65707ff8708cceae212e2c,Form,8,0,subj_info,NULL,comment,Good survey.
1567189075,befbaf843f65707ff8708cceae212e2c,Form,8,0,subj_info,NULL,sex,male
1567189075,befbaf843f65707ff8708cceae212e2c,Form,8,0,subj_info,NULL,politics,republican
1567189075,befbaf843f65707ff8708cceae212e2c,Form,8,0,subj_info,NULL,_REACTION_TIME_,22943
#
# Results on Friday August 30 2019 18:19:05 UTC.
# USER AGENT: Mozilla/5.0 (Windows NT 10.0; Win64; x64) AppleWebKit/537.36 (KHTML, like Gecko) Chrome/76.0.3809.100 Safari/537.36
# Design number was non-random = 30
#
# Columns below this comment are as follows:
# 1. Time results were received.
# 2. MD5 hash of participant's IP address.
# 3. Controller name.
# 4. Item number.
# 5. Element number.
# 6. Type.
# 7. Group.
# 8. Field name.
# 9. Field value.
1567189145,45b43f97bf5a150544804ab8a1dbb7eb,Form,3,0,consent,NULL,,yes
1567189145,45b43f97bf5a150544804ab8a1dbb7eb,Form,3,0,consent,NULL,_REACTION_TIME_,11721
1567189145,45b43f97bf5a150544804ab8a1dbb7eb,Form,4,0,instructions,NULL,_REACTION_TIME_,1977
1567189145,45b43f97bf5a150544804ab8a1dbb7eb,Form,5,0,story,16,_REACTION_TIME_,16118
# Columns below this comment are as follows:
# 1. Time results were received.
# 2. MD5 hash of participant's IP address.
# 3. Controller name.
# 4. Item number.
# 5. Element number.
# 6. Type.
# 7. Group.
# 8. Question (NULL if none).
# 9. Answer.
# 10. Whether or not answer was correct (NULL if N/A).
# 11. Time taken to answer.
1567189145,45b43f97bf5a150544804ab8a1dbb7eb,Question,5,1,story,16,According to Mary%2C what's in the box?,a bomb,1,4194
1567189145,45b43f97bf5a150544804ab8a1dbb7eb,Question,5,2,story,16,What was really in the box?,a pillow,0,2021
1567189145,45b43f97bf5a150544804ab8a1dbb7eb,Question,5,3,story,16,Was Mary right about that?,no,1,3302
1567189145,45b43f97bf5a150544804ab8a1dbb7eb,Question,7,0,politics,NULL,How worried are you about taxpayer money being wasted?,a little worried,NULL,3110
1567189145,45b43f97bf5a150544804ab8a1dbb7eb,Question,6,0,politics,NULL,How worried are you about bombs being sent to government officials?,a little worried,NULL,2878
# Columns below this comment are as follows:
# 1. Time results were received.
# 2. MD5 hash of participant's IP address.
# 3. Controller name.
# 4. Item number.
# 5. Element number.
# 6. Type.
# 7. Group.
# 8. Field name.
# 9. Field value.
1567189145,45b43f97bf5a150544804ab8a1dbb7eb,Form,8,0,subj_info,NULL,year,1963
1567189145,45b43f97bf5a150544804ab8a1dbb7eb,Form,8,0,subj_info,NULL,language,English
1567189145,45b43f97bf5a150544804ab8a1dbb7eb,Form,8,0,subj_info,NULL,idturk,A3B84NGQT7Z9WE
1567189145,45b43f97bf5a150544804ab8a1dbb7eb,Form,8,0,subj_info,NULL,comment,
1567189145,45b43f97bf5a150544804ab8a1dbb7eb,Form,8,0,subj_info,NULL,sex,male
1567189145,45b43f97bf5a150544804ab8a1dbb7eb,Form,8,0,subj_info,NULL,politics,republican
1567189145,45b43f97bf5a150544804ab8a1dbb7eb,Form,8,0,subj_info,NULL,_REACTION_TIME_,21312
#
# Results on Friday August 30 2019 18:19:45 UTC.
# USER AGENT: Mozilla/5.0 (Macintosh; Intel Mac OS X 10_12_6) AppleWebKit/537.36 (KHTML, like Gecko) Chrome/76.0.3809.132 Safari/537.36
# Design number was non-random = 30
#
# Columns below this comment are as follows:
# 1. Time results were received.
# 2. MD5 hash of participant's IP address.
# 3. Controller name.
# 4. Item number.
# 5. Element number.
# 6. Type.
# 7. Group.
# 8. Field name.
# 9. Field value.
1567189185,06d6482ebc9b4fb03cbbee3f003db418,Form,3,0,consent,NULL,,yes
1567189185,06d6482ebc9b4fb03cbbee3f003db418,Form,3,0,consent,NULL,_REACTION_TIME_,11894
1567189185,06d6482ebc9b4fb03cbbee3f003db418,Form,4,0,instructions,NULL,_REACTION_TIME_,4709
1567189185,06d6482ebc9b4fb03cbbee3f003db418,Form,5,0,story,16,_REACTION_TIME_,9987
# Columns below this comment are as follows:
# 1. Time results were received.
# 2. MD5 hash of participant's IP address.
# 3. Controller name.
# 4. Item number.
# 5. Element number.
# 6. Type.
# 7. Group.
# 8. Question (NULL if none).
# 9. Answer.
# 10. Whether or not answer was correct (NULL if N/A).
# 11. Time taken to answer.
1567189185,06d6482ebc9b4fb03cbbee3f003db418,Question,5,1,story,16,According to Mary%2C what's in the box?,a bomb,1,2190
1567189185,06d6482ebc9b4fb03cbbee3f003db418,Question,5,2,story,16,What was really in the box?,a pillow,0,1052
1567189185,06d6482ebc9b4fb03cbbee3f003db418,Question,5,3,story,16,Was Mary right about that?,no,1,1099
1567189185,06d6482ebc9b4fb03cbbee3f003db418,Question,7,0,politics,NULL,How worried are you about taxpayer money being wasted?,very worried,NULL,3017
1567189185,06d6482ebc9b4fb03cbbee3f003db418,Question,6,0,politics,NULL,How worried are you about bombs being sent to government officials?,a little worried,NULL,2859
# Columns below this comment are as follows:
# 1. Time results were received.
# 2. MD5 hash of participant's IP address.
# 3. Controller name.
# 4. Item number.
# 5. Element number.
# 6. Type.
# 7. Group.
# 8. Field name.
# 9. Field value.
1567189185,06d6482ebc9b4fb03cbbee3f003db418,Form,8,0,subj_info,NULL,year,1992
1567189185,06d6482ebc9b4fb03cbbee3f003db418,Form,8,0,subj_info,NULL,language,English
1567189185,06d6482ebc9b4fb03cbbee3f003db418,Form,8,0,subj_info,NULL,idturk,A3BEG3VHBPT6A1
1567189185,06d6482ebc9b4fb03cbbee3f003db418,Form,8,0,subj_info,NULL,comment,
1567189185,06d6482ebc9b4fb03cbbee3f003db418,Form,8,0,subj_info,NULL,sex,female
1567189185,06d6482ebc9b4fb03cbbee3f003db418,Form,8,0,subj_info,NULL,politics,democrat
1567189185,06d6482ebc9b4fb03cbbee3f003db418,Form,8,0,subj_info,NULL,_REACTION_TIME_,12986
#
# Results on Friday August 30 2019 18:21:05 UTC.
# USER AGENT: Mozilla/5.0 (Linux; Android 9; Pixel 3) AppleWebKit/537.36 (KHTML, like Gecko) Chrome/76.0.3809.132 Mobile Safari/537.36
# Design number was non-random = 22
#
# Columns below this comment are as follows:
# 1. Time results were received.
# 2. MD5 hash of participant's IP address.
# 3. Controller name.
# 4. Item number.
# 5. Element number.
# 6. Type.
# 7. Group.
# 8. Field name.
# 9. Field value.
1567189266,b7d9f939904b347c31b169713985782a,Form,3,0,consent,NULL,,yes
1567189266,b7d9f939904b347c31b169713985782a,Form,3,0,consent,NULL,_REACTION_TIME_,12019
1567189266,b7d9f939904b347c31b169713985782a,Form,4,0,instructions,NULL,_REACTION_TIME_,10631
1567189266,b7d9f939904b347c31b169713985782a,Form,5,0,story,16,_REACTION_TIME_,22447
# Columns below this comment are as follows:
# 1. Time results were received.
# 2. MD5 hash of participant's IP address.
# 3. Controller name.
# 4. Item number.
# 5. Element number.
# 6. Type.
# 7. Group.
# 8. Question (NULL if none).
# 9. Answer.
# 10. Whether or not answer was correct (NULL if N/A).
# 11. Time taken to answer.
1567189266,b7d9f939904b347c31b169713985782a,Question,5,1,story,16,According to Mary%2C what's in the box?,a bomb,1,2640
1567189266,b7d9f939904b347c31b169713985782a,Question,5,2,story,16,What was really in the box?,a pillow,0,1788
1567189266,b7d9f939904b347c31b169713985782a,Question,5,3,story,16,Was Mary right about that?,no,1,4490
1567189266,b7d9f939904b347c31b169713985782a,Question,7,0,politics,NULL,How worried are you about taxpayer money being wasted?,not at all worried,NULL,3171
1567189266,b7d9f939904b347c31b169713985782a,Question,6,0,politics,NULL,How worried are you about bombs being sent to government officials?,a little worried,NULL,5240
# Columns below this comment are as follows:
# 1. Time results were received.
# 2. MD5 hash of participant's IP address.
# 3. Controller name.
# 4. Item number.
# 5. Element number.
# 6. Type.
# 7. Group.
# 8. Field name.
# 9. Field value.
1567189266,b7d9f939904b347c31b169713985782a,Form,8,0,subj_info,NULL,year,1989
1567189266,b7d9f939904b347c31b169713985782a,Form,8,0,subj_info,NULL,language,English
1567189266,b7d9f939904b347c31b169713985782a,Form,8,0,subj_info,NULL,idturk,A27G7IZ1ZOMX5T
1567189266,b7d9f939904b347c31b169713985782a,Form,8,0,subj_info,NULL,comment,
1567189266,b7d9f939904b347c31b169713985782a,Form,8,0,subj_info,NULL,sex,female
1567189266,b7d9f939904b347c31b169713985782a,Form,8,0,subj_info,NULL,politics,democrat
1567189266,b7d9f939904b347c31b169713985782a,Form,8,0,subj_info,NULL,_REACTION_TIME_,528760
#
# Results on Friday August 30 2019 18:23:22 UTC.
# USER AGENT: Mozilla/5.0 (Macintosh; Intel Mac OS X 10_13_6) AppleWebKit/605.1.15 (KHTML, like Gecko) Version/12.0.1 Safari/605.1.15
# Design number was non-random = 31
#
# Columns below this comment are as follows:
# 1. Time results were received.
# 2. MD5 hash of participant's IP address.
# 3. Controller name.
# 4. Item number.
# 5. Element number.
# 6. Type.
# 7. Group.
# 8. Field name.
# 9. Field value.
1567189403,e891e1f18e1372207efa80e665aa1c42,Form,3,0,consent,NULL,,yes
1567189403,e891e1f18e1372207efa80e665aa1c42,Form,3,0,consent,NULL,_REACTION_TIME_,10470
1567189403,e891e1f18e1372207efa80e665aa1c42,Form,4,0,instructions,NULL,_REACTION_TIME_,125103
1567189403,e891e1f18e1372207efa80e665aa1c42,Form,5,0,story,16,_REACTION_TIME_,26037
# Columns below this comment are as follows:
# 1. Time results were received.
# 2. MD5 hash of participant's IP address.
# 3. Controller name.
# 4. Item number.
# 5. Element number.
# 6. Type.
# 7. Group.
# 8. Question (NULL if none).
# 9. Answer.
# 10. Whether or not answer was correct (NULL if N/A).
# 11. Time taken to answer.
1567189403,e891e1f18e1372207efa80e665aa1c42,Question,5,1,story,16,According to Mary%2C what's in the box?,a bomb,1,3717
1567189403,e891e1f18e1372207efa80e665aa1c42,Question,5,2,story,16,What was really in the box?,a pillow,0,2115
1567189403,e891e1f18e1372207efa80e665aa1c42,Question,5,3,story,16,Was Mary right about that?,no,1,3554
1567189403,e891e1f18e1372207efa80e665aa1c42,Question,7,0,politics,NULL,How worried are you about taxpayer money being wasted?,not at all worried,NULL,4587
1567189403,e891e1f18e1372207efa80e665aa1c42,Question,6,0,politics,NULL,How worried are you about bombs being sent to government officials?,not at all worried,NULL,3276
# Columns below this comment are as follows:
# 1. Time results were received.
# 2. MD5 hash of participant's IP address.
# 3. Controller name.
# 4. Item number.
# 5. Element number.
# 6. Type.
# 7. Group.
# 8. Field name.
# 9. Field value.
1567189403,e891e1f18e1372207efa80e665aa1c42,Form,8,0,subj_info,NULL,year,1970
1567189403,e891e1f18e1372207efa80e665aa1c42,Form,8,0,subj_info,NULL,language,English
1567189403,e891e1f18e1372207efa80e665aa1c42,Form,8,0,subj_info,NULL,idturk,A3X6N2OAY5XY8
1567189403,e891e1f18e1372207efa80e665aa1c42,Form,8,0,subj_info,NULL,comment,
1567189403,e891e1f18e1372207efa80e665aa1c42,Form,8,0,subj_info,NULL,sex,male
1567189403,e891e1f18e1372207efa80e665aa1c42,Form,8,0,subj_info,NULL,politics,democrat
1567189403,e891e1f18e1372207efa80e665aa1c42,Form,8,0,subj_info,NULL,_REACTION_TIME_,37608
#
# Results on Friday August 30 2019 18:23:45 UTC.
# USER AGENT: Mozilla/5.0 (Windows NT 10.0; Win64; x64) AppleWebKit/537.36 (KHTML, like Gecko) Chrome/76.0.3809.132 Safari/537.36
# Design number was non-random = 33
#
# Columns below this comment are as follows:
# 1. Time results were received.
# 2. MD5 hash of participant's IP address.
# 3. Controller name.
# 4. Item number.
# 5. Element number.
# 6. Type.
# 7. Group.
# 8. Field name.
# 9. Field value.
1567189425,40896ffbd10ca7a3a167dba7df140ee9,Form,3,0,consent,NULL,,yes
1567189425,40896ffbd10ca7a3a167dba7df140ee9,Form,3,0,consent,NULL,_REACTION_TIME_,62102
1567189425,40896ffbd10ca7a3a167dba7df140ee9,Form,4,0,instructions,NULL,_REACTION_TIME_,10388
1567189425,40896ffbd10ca7a3a167dba7df140ee9,Form,5,0,story,16,_REACTION_TIME_,24336
# Columns below this comment are as follows:
# 1. Time results were received.
# 2. MD5 hash of participant's IP address.
# 3. Controller name.
# 4. Item number.
# 5. Element number.
# 6. Type.
# 7. Group.
# 8. Question (NULL if none).
# 9. Answer.
# 10. Whether or not answer was correct (NULL if N/A).
# 11. Time taken to answer.
1567189425,40896ffbd10ca7a3a167dba7df140ee9,Question,5,1,story,16,According to Mary%2C what's in the box?,a bomb,1,2560
1567189425,40896ffbd10ca7a3a167dba7df140ee9,Question,5,2,story,16,What was really in the box?,a pillow,0,2000
1567189425,40896ffbd10ca7a3a167dba7df140ee9,Question,5,3,story,16,Was Mary right about that?,no,1,2757
1567189425,40896ffbd10ca7a3a167dba7df140ee9,Question,6,0,politics,NULL,How worried are you about bombs being sent to government officials?,a little worried,NULL,3625
1567189425,40896ffbd10ca7a3a167dba7df140ee9,Question,7,0,politics,NULL,How worried are you about taxpayer money being wasted?,not at all worried,NULL,5892
# Columns below this comment are as follows:
# 1. Time results were received.
# 2. MD5 hash of participant's IP address.
# 3. Controller name.
# 4. Item number.
# 5. Element number.
# 6. Type.
# 7. Group.
# 8. Field name.
# 9. Field value.
1567189425,40896ffbd10ca7a3a167dba7df140ee9,Form,8,0,subj_info,NULL,year,1996
1567189425,40896ffbd10ca7a3a167dba7df140ee9,Form,8,0,subj_info,NULL,language,English
1567189425,40896ffbd10ca7a3a167dba7df140ee9,Form,8,0,subj_info,NULL,idturk,A2QXN9TJNWRNL7
1567189425,40896ffbd10ca7a3a167dba7df140ee9,Form,8,0,subj_info,NULL,comment,
1567189425,40896ffbd10ca7a3a167dba7df140ee9,Form,8,0,subj_info,NULL,sex,female
1567189425,40896ffbd10ca7a3a167dba7df140ee9,Form,8,0,subj_info,NULL,politics,democrat
1567189425,40896ffbd10ca7a3a167dba7df140ee9,Form,8,0,subj_info,NULL,_REACTION_TIME_,28531
#
# Results on Friday August 30 2019 18:24:59 UTC.
# USER AGENT: Mozilla/5.0 (Windows NT 10.0; Win64; x64) AppleWebKit/537.36 (KHTML, like Gecko) Chrome/76.0.3809.100 Safari/537.36
# Design number was non-random = 33
#
# Columns below this comment are as follows:
# 1. Time results were received.
# 2. MD5 hash of participant's IP address.
# 3. Controller name.
# 4. Item number.
# 5. Element number.
# 6. Type.
# 7. Group.
# 8. Field name.
# 9. Field value.
1567189499,a2b29f544fe87d636ca948651ca525b4,Form,3,0,consent,NULL,,yes
1567189499,a2b29f544fe87d636ca948651ca525b4,Form,3,0,consent,NULL,_REACTION_TIME_,3223
1567189499,a2b29f544fe87d636ca948651ca525b4,Form,4,0,instructions,NULL,_REACTION_TIME_,1358
1567189499,a2b29f544fe87d636ca948651ca525b4,Form,5,0,story,16,_REACTION_TIME_,23826
# Columns below this comment are as follows:
# 1. Time results were received.
# 2. MD5 hash of participant's IP address.
# 3. Controller name.
# 4. Item number.
# 5. Element number.
# 6. Type.
# 7. Group.
# 8. Question (NULL if none).
# 9. Answer.
# 10. Whether or not answer was correct (NULL if N/A).
# 11. Time taken to answer.
1567189499,a2b29f544fe87d636ca948651ca525b4,Question,5,1,story,16,According to Mary%2C what's in the box?,a bomb,1,3298
1567189499,a2b29f544fe87d636ca948651ca525b4,Question,5,2,story,16,What was really in the box?,a pillow,0,1776
1567189499,a2b29f544fe87d636ca948651ca525b4,Question,5,3,story,16,Was Mary right about that?,no,1,1947
1567189499,a2b29f544fe87d636ca948651ca525b4,Question,7,0,politics,NULL,How worried are you about taxpayer money being wasted?,very worried,NULL,3845
1567189499,a2b29f544fe87d636ca948651ca525b4,Question,6,0,politics,NULL,How worried are you about bombs being sent to government officials?,very worried,NULL,3797
# Columns below this comment are as follows:
# 1. Time results were received.
# 2. MD5 hash of participant's IP address.
# 3. Controller name.
# 4. Item number.
# 5. Element number.
# 6. Type.
# 7. Group.
# 8. Field name.
# 9. Field value.
1567189499,a2b29f544fe87d636ca948651ca525b4,Form,8,0,subj_info,NULL,year,1988
1567189499,a2b29f544fe87d636ca948651ca525b4,Form,8,0,subj_info,NULL,language,English
1567189499,a2b29f544fe87d636ca948651ca525b4,Form,8,0,subj_info,NULL,idturk,A1VLKEZDMYN8UB
1567189499,a2b29f544fe87d636ca948651ca525b4,Form,8,0,subj_info,NULL,comment,A persons life should never be but in danger BUT i think if Mary had used some common sense and took a few minutes to confirm the package%2C The bomb squad could have not been needed.
1567189499,a2b29f544fe87d636ca948651ca525b4,Form,8,0,subj_info,NULL,sex,male
1567189499,a2b29f544fe87d636ca948651ca525b4,Form,8,0,subj_info,NULL,politics,republican
1567189499,a2b29f544fe87d636ca948651ca525b4,Form,8,0,subj_info,NULL,_REACTION_TIME_,70146
#
# Results on Friday August 30 2019 18:26:32 UTC.
# USER AGENT: Mozilla/5.0 (Macintosh; Intel Mac OS X 10_14_4) AppleWebKit/537.36 (KHTML, like Gecko) Chrome/76.0.3809.100 Safari/537.36
# Design number was non-random = 36
#
# Columns below this comment are as follows:
# 1. Time results were received.
# 2. MD5 hash of participant's IP address.
# 3. Controller name.
# 4. Item number.
# 5. Element number.
# 6. Type.
# 7. Group.
# 8. Field name.
# 9. Field value.
1567189592,12175f0461c0fdb341db997c70497690,Form,3,0,consent,NULL,,yes
1567189592,12175f0461c0fdb341db997c70497690,Form,3,0,consent,NULL,_REACTION_TIME_,3042
1567189592,12175f0461c0fdb341db997c70497690,Form,4,0,instructions,NULL,_REACTION_TIME_,1344
1567189592,12175f0461c0fdb341db997c70497690,Form,5,0,story,16,_REACTION_TIME_,10461
# Columns below this comment are as follows:
# 1. Time results were received.
# 2. MD5 hash of participant's IP address.
# 3. Controller name.
# 4. Item number.
# 5. Element number.
# 6. Type.
# 7. Group.
# 8. Question (NULL if none).
# 9. Answer.
# 10. Whether or not answer was correct (NULL if N/A).
# 11. Time taken to answer.
1567189592,12175f0461c0fdb341db997c70497690,Question,5,1,story,16,According to Mary%2C what's in the box?,a bomb,1,2397
1567189592,12175f0461c0fdb341db997c70497690,Question,5,2,story,16,What was really in the box?,a pillow,0,1855
1567189592,12175f0461c0fdb341db997c70497690,Question,5,3,story,16,Was Mary right about that?,no,1,1599
1567189592,12175f0461c0fdb341db997c70497690,Question,6,0,politics,NULL,How worried are you about bombs being sent to government officials?,very worried,NULL,2403
1567189592,12175f0461c0fdb341db997c70497690,Question,7,0,politics,NULL,How worried are you about taxpayer money being wasted?,very worried,NULL,2383
# Columns below this comment are as follows:
# 1. Time results were received.
# 2. MD5 hash of participant's IP address.
# 3. Controller name.
# 4. Item number.
# 5. Element number.
# 6. Type.
# 7. Group.
# 8. Field name.
# 9. Field value.
1567189592,12175f0461c0fdb341db997c70497690,Form,8,0,subj_info,NULL,year,1997
1567189592,12175f0461c0fdb341db997c70497690,Form,8,0,subj_info,NULL,language,english
1567189592,12175f0461c0fdb341db997c70497690,Form,8,0,subj_info,NULL,idturk,A2P7Z2TKGACY2E
1567189592,12175f0461c0fdb341db997c70497690,Form,8,0,subj_info,NULL,comment,
1567189592,12175f0461c0fdb341db997c70497690,Form,8,0,subj_info,NULL,sex,female
1567189592,12175f0461c0fdb341db997c70497690,Form,8,0,subj_info,NULL,politics,other
1567189592,12175f0461c0fdb341db997c70497690,Form,8,0,subj_info,NULL,_REACTION_TIME_,10977
#
# Results on Friday August 30 2019 18:29:21 UTC.
# USER AGENT: Mozilla/5.0 (Windows NT 10.0; Win64; x64) AppleWebKit/537.36 (KHTML, like Gecko) Chrome/76.0.3809.132 Safari/537.36
# Design number was non-random = 37
#
# Columns below this comment are as follows:
# 1. Time results were received.
# 2. MD5 hash of participant's IP address.
# 3. Controller name.
# 4. Item number.
# 5. Element number.
# 6. Type.
# 7. Group.
# 8. Field name.
# 9. Field value.
1567189762,12a31a3ec606eb4d4203161b089e8035,Form,3,0,consent,NULL,,yes
1567189762,12a31a3ec606eb4d4203161b089e8035,Form,3,0,consent,NULL,_REACTION_TIME_,24032
1567189762,12a31a3ec606eb4d4203161b089e8035,Form,4,0,instructions,NULL,_REACTION_TIME_,5172
1567189762,12a31a3ec606eb4d4203161b089e8035,Form,5,0,story,16,_REACTION_TIME_,45920
# Columns below this comment are as follows:
# 1. Time results were received.
# 2. MD5 hash of participant's IP address.
# 3. Controller name.
# 4. Item number.
# 5. Element number.
# 6. Type.
# 7. Group.
# 8. Question (NULL if none).
# 9. Answer.
# 10. Whether or not answer was correct (NULL if N/A).
# 11. Time taken to answer.
1567189762,12a31a3ec606eb4d4203161b089e8035,Question,5,1,story,16,According to Mary%2C what's in the box?,a bomb,1,4910
1567189762,12a31a3ec606eb4d4203161b089e8035,Question,5,2,story,16,What was really in the box?,a pillow,0,2318
1567189762,12a31a3ec606eb4d4203161b089e8035,Question,5,3,story,16,Was Mary right about that?,no,1,7471
1567189762,12a31a3ec606eb4d4203161b089e8035,Question,7,0,politics,NULL,How worried are you about taxpayer money being wasted?,not at all worried,NULL,8031
1567189762,12a31a3ec606eb4d4203161b089e8035,Question,6,0,politics,NULL,How worried are you about bombs being sent to government officials?,a little worried,NULL,3511
# Columns below this comment are as follows:
# 1. Time results were received.
# 2. MD5 hash of participant's IP address.
# 3. Controller name.
# 4. Item number.
# 5. Element number.
# 6. Type.
# 7. Group.
# 8. Field name.
# 9. Field value.
1567189762,12a31a3ec606eb4d4203161b089e8035,Form,8,0,subj_info,NULL,year,1963
1567189762,12a31a3ec606eb4d4203161b089e8035,Form,8,0,subj_info,NULL,language,English
1567189762,12a31a3ec606eb4d4203161b089e8035,Form,8,0,subj_info,NULL,idturk,A3F7XWCTV8DCVH
1567189762,12a31a3ec606eb4d4203161b089e8035,Form,8,0,subj_info,NULL,comment,great survey
1567189762,12a31a3ec606eb4d4203161b089e8035,Form,8,0,subj_info,NULL,sex,male
1567189762,12a31a3ec606eb4d4203161b089e8035,Form,8,0,subj_info,NULL,politics,republican
1567189762,12a31a3ec606eb4d4203161b089e8035,Form,8,0,subj_info,NULL,_REACTION_TIME_,49014
#
# Results on Friday August 30 2019 18:29:25 UTC.
# USER AGENT: Mozilla/5.0 (Windows NT 6.3; Win64; x64) AppleWebKit/537.36 (KHTML, like Gecko) Chrome/75.0.3770.142 Safari/537.36
# Design number was non-random = 37
#
# Columns below this comment are as follows:
# 1. Time results were received.
# 2. MD5 hash of participant's IP address.
# 3. Controller name.
# 4. Item number.
# 5. Element number.
# 6. Type.
# 7. Group.
# 8. Field name.
# 9. Field value.
1567189765,bfa8b917572927adf77b24a4f671ceb4,Form,3,0,consent,NULL,,yes
1567189765,bfa8b917572927adf77b24a4f671ceb4,Form,3,0,consent,NULL,_REACTION_TIME_,10098
1567189765,bfa8b917572927adf77b24a4f671ceb4,Form,4,0,instructions,NULL,_REACTION_TIME_,5128
1567189765,bfa8b917572927adf77b24a4f671ceb4,Form,5,0,story,16,_REACTION_TIME_,25069
# Columns below this comment are as follows:
# 1. Time results were received.
# 2. MD5 hash of participant's IP address.
# 3. Controller name.
# 4. Item number.
# 5. Element number.
