#
# Results on Friday August 30 2019 18:02:01 UTC.
# USER AGENT: Mozilla/5.0 (Windows NT 10.0; Win64; x64) AppleWebKit/537.36 (KHTML, like Gecko) Chrome/76.0.3809.100 Safari/537.36
# Design number was non-random = 0
#
# Columns below this comment are as follows:
# 1. Time results were received.
# 2. MD5 hash of participant's IP address.
# 3. Controller name.
# 4. Item number.
# 5. Element number.
# 6. Type.
# 7. Group.
# 8. Field name.
# 9. Field value.
1567188122,8dc188205f345c83d6fa8374118ab833,Form,3,0,consent,NULL,,yes
1567188122,8dc188205f345c83d6fa8374118ab833,Form,3,0,consent,NULL,_REACTION_TIME_,6510
1567188122,8dc188205f345c83d6fa8374118ab833,Form,4,0,instructions,NULL,_REACTION_TIME_,2329
1567188122,8dc188205f345c83d6fa8374118ab833,Form,5,0,story,5,_REACTION_TIME_,11465
# Columns below this comment are as follows:
# 1. Time results were received.
# 2. MD5 hash of participant's IP address.
# 3. Controller name.
# 4. Item number.
# 5. Element number.
# 6. Type.
# 7. Group.
# 8. Question (NULL if none).
# 9. Answer.
# 10. Whether or not answer was correct (NULL if N/A).
# 11. Time taken to answer.
1567188122,8dc188205f345c83d6fa8374118ab833,Question,5,1,story,5,What's in the box%2C according to John?,a bomb,1,2459
1567188122,8dc188205f345c83d6fa8374118ab833,Question,5,2,story,5,What was really in the box?,a pillow,0,3075
1567188122,8dc188205f345c83d6fa8374118ab833,Question,5,3,story,5,Was John right about that?,no,1,2106
1567188122,8dc188205f345c83d6fa8374118ab833,Question,6,0,politics,NULL,How worried are you about bombs being sent to government officials?,very worried,NULL,3880
1567188122,8dc188205f345c83d6fa8374118ab833,Question,7,0,politics,NULL,How worried are you about taxpayer money being wasted?,very worried,NULL,7348
# Columns below this comment are as follows:
# 1. Time results were received.
# 2. MD5 hash of participant's IP address.
# 3. Controller name.
# 4. Item number.
# 5. Element number.
# 6. Type.
# 7. Group.
# 8. Field name.
# 9. Field value.
1567188122,8dc188205f345c83d6fa8374118ab833,Form,8,0,subj_info,NULL,year,1995
1567188122,8dc188205f345c83d6fa8374118ab833,Form,8,0,subj_info,NULL,language,English
1567188122,8dc188205f345c83d6fa8374118ab833,Form,8,0,subj_info,NULL,idturk,AZOQYZHCJ2PKY
1567188122,8dc188205f345c83d6fa8374118ab833,Form,8,0,subj_info,NULL,comment,
1567188122,8dc188205f345c83d6fa8374118ab833,Form,8,0,subj_info,NULL,sex,female
1567188122,8dc188205f345c83d6fa8374118ab833,Form,8,0,subj_info,NULL,politics,democrat
1567188122,8dc188205f345c83d6fa8374118ab833,Form,8,0,subj_info,NULL,_REACTION_TIME_,19142
#
# Results on Friday August 30 2019 18:02:06 UTC.
# USER AGENT: Mozilla/5.0 (Windows NT 10.0; Win64; x64) AppleWebKit/537.36 (KHTML, like Gecko) Chrome/76.0.3809.100 Safari/537.36
# Design number was non-random = 0
#
# Columns below this comment are as follows:
# 1. Time results were received.
# 2. MD5 hash of participant's IP address.
# 3. Controller name.
# 4. Item number.
# 5. Element number.
# 6. Type.
# 7. Group.
# 8. Field name.
# 9. Field value.
1567188127,f4bf6d4d6e867ffc625807d3dde5e323,Form,3,0,consent,NULL,,yes
1567188127,f4bf6d4d6e867ffc625807d3dde5e323,Form,3,0,consent,NULL,_REACTION_TIME_,11625
1567188127,f4bf6d4d6e867ffc625807d3dde5e323,Form,4,0,instructions,NULL,_REACTION_TIME_,2086
1567188127,f4bf6d4d6e867ffc625807d3dde5e323,Form,5,0,story,5,_REACTION_TIME_,13183
# Columns below this comment are as follows:
# 1. Time results were received.
# 2. MD5 hash of participant's IP address.
# 3. Controller name.
# 4. Item number.
# 5. Element number.
# 6. Type.
# 7. Group.
# 8. Question (NULL if none).
# 9. Answer.
# 10. Whether or not answer was correct (NULL if N/A).
# 11. Time taken to answer.
1567188127,f4bf6d4d6e867ffc625807d3dde5e323,Question,5,1,story,5,What's in the box%2C according to John?,a bomb,1,4249
1567188127,f4bf6d4d6e867ffc625807d3dde5e323,Question,5,2,story,5,What was really in the box?,a pillow,0,2744
1567188127,f4bf6d4d6e867ffc625807d3dde5e323,Question,5,3,story,5,Was John right about that?,no,1,3384
1567188127,f4bf6d4d6e867ffc625807d3dde5e323,Question,6,0,politics,NULL,How worried are you about bombs being sent to government officials?,a little worried,NULL,5110
1567188127,f4bf6d4d6e867ffc625807d3dde5e323,Question,7,0,politics,NULL,How worried are you about taxpayer money being wasted?,a little worried,NULL,6055
# Columns below this comment are as follows:
# 1. Time results were received.
# 2. MD5 hash of participant's IP address.
# 3. Controller name.
# 4. Item number.
# 5. Element number.
# 6. Type.
# 7. Group.
# 8. Field name.
# 9. Field value.
1567188127,f4bf6d4d6e867ffc625807d3dde5e323,Form,8,0,subj_info,NULL,year,1988
1567188127,f4bf6d4d6e867ffc625807d3dde5e323,Form,8,0,subj_info,NULL,language,english
1567188127,f4bf6d4d6e867ffc625807d3dde5e323,Form,8,0,subj_info,NULL,idturk,A3OBN9AXXMSX0K
1567188127,f4bf6d4d6e867ffc625807d3dde5e323,Form,8,0,subj_info,NULL,comment,
1567188127,f4bf6d4d6e867ffc625807d3dde5e323,Form,8,0,subj_info,NULL,sex,male
1567188127,f4bf6d4d6e867ffc625807d3dde5e323,Form,8,0,subj_info,NULL,politics,other
1567188127,f4bf6d4d6e867ffc625807d3dde5e323,Form,8,0,subj_info,NULL,_REACTION_TIME_,24856
#
# Results on Friday August 30 2019 18:02:23 UTC.
# USER AGENT: Mozilla/5.0 (Windows NT 10.0; Win64; x64) AppleWebKit/537.36 (KHTML, like Gecko) Chrome/76.0.3809.132 Safari/537.36
# Design number was non-random = 0
#
# Columns below this comment are as follows:
# 1. Time results were received.
# 2. MD5 hash of participant's IP address.
# 3. Controller name.
# 4. Item number.
# 5. Element number.
# 6. Type.
# 7. Group.
# 8. Field name.
# 9. Field value.
1567188143,e3e268e772335cf31da51426c3818390,Form,3,0,consent,NULL,,yes
1567188143,e3e268e772335cf31da51426c3818390,Form,3,0,consent,NULL,_REACTION_TIME_,6688
1567188143,e3e268e772335cf31da51426c3818390,Form,4,0,instructions,NULL,_REACTION_TIME_,2013
1567188143,e3e268e772335cf31da51426c3818390,Form,5,0,story,5,_REACTION_TIME_,18708
# Columns below this comment are as follows:
# 1. Time results were received.
# 2. MD5 hash of participant's IP address.
# 3. Controller name.
# 4. Item number.
# 5. Element number.
# 6. Type.
# 7. Group.
# 8. Question (NULL if none).
# 9. Answer.
# 10. Whether or not answer was correct (NULL if N/A).
# 11. Time taken to answer.
1567188143,e3e268e772335cf31da51426c3818390,Question,5,1,story,5,What's in the box%2C according to John?,a bomb,1,3342
1567188143,e3e268e772335cf31da51426c3818390,Question,5,2,story,5,What was really in the box?,a pillow,0,2477
1567188143,e3e268e772335cf31da51426c3818390,Question,5,3,story,5,Was John right about that?,no,1,3170
1567188143,e3e268e772335cf31da51426c3818390,Question,7,0,politics,NULL,How worried are you about taxpayer money being wasted?,very worried,NULL,3251
1567188143,e3e268e772335cf31da51426c3818390,Question,6,0,politics,NULL,How worried are you about bombs being sent to government officials?,a little worried,NULL,3018
# Columns below this comment are as follows:
# 1. Time results were received.
# 2. MD5 hash of participant's IP address.
# 3. Controller name.
# 4. Item number.
# 5. Element number.
# 6. Type.
# 7. Group.
# 8. Field name.
# 9. Field value.
1567188143,e3e268e772335cf31da51426c3818390,Form,8,0,subj_info,NULL,year,1958
1567188143,e3e268e772335cf31da51426c3818390,Form,8,0,subj_info,NULL,language,English
1567188143,e3e268e772335cf31da51426c3818390,Form,8,0,subj_info,NULL,idturk,A2VNSNAN1LZBAM
1567188143,e3e268e772335cf31da51426c3818390,Form,8,0,subj_info,NULL,comment,
1567188143,e3e268e772335cf31da51426c3818390,Form,8,0,subj_info,NULL,sex,female
1567188143,e3e268e772335cf31da51426c3818390,Form,8,0,subj_info,NULL,politics,republican
1567188143,e3e268e772335cf31da51426c3818390,Form,8,0,subj_info,NULL,_REACTION_TIME_,21411
#
# Results on Friday August 30 2019 18:02:40 UTC.
# USER AGENT: Mozilla/5.0 (Windows NT 10.0; Win64; x64) AppleWebKit/537.36 (KHTML, like Gecko) Chrome/77.0.3865.56 Safari/537.36
# Design number was non-random = 0
#
# Columns below this comment are as follows:
# 1. Time results were received.
# 2. MD5 hash of participant's IP address.
# 3. Controller name.
# 4. Item number.
# 5. Element number.
# 6. Type.
# 7. Group.
# 8. Field name.
# 9. Field value.
1567188160,9abb6d5d9a8d81ffd982698bc3516110,Form,3,0,consent,NULL,,yes
1567188160,9abb6d5d9a8d81ffd982698bc3516110,Form,3,0,consent,NULL,_REACTION_TIME_,2878
1567188160,9abb6d5d9a8d81ffd982698bc3516110,Form,4,0,instructions,NULL,_REACTION_TIME_,1656
1567188160,9abb6d5d9a8d81ffd982698bc3516110,Form,5,0,story,5,_REACTION_TIME_,6452
# Columns below this comment are as follows:
# 1. Time results were received.
# 2. MD5 hash of participant's IP address.
# 3. Controller name.
# 4. Item number.
# 5. Element number.
# 6. Type.
# 7. Group.
# 8. Question (NULL if none).
# 9. Answer.
# 10. Whether or not answer was correct (NULL if N/A).
# 11. Time taken to answer.
1567188160,9abb6d5d9a8d81ffd982698bc3516110,Question,5,1,story,5,What's in the box%2C according to John?,a pillow,0,1661
1567188160,9abb6d5d9a8d81ffd982698bc3516110,Question,5,2,story,5,What was really in the box?,a pillow,0,2447
1567188160,9abb6d5d9a8d81ffd982698bc3516110,Question,5,3,story,5,Was John right about that?,yes,0,2008
1567188160,9abb6d5d9a8d81ffd982698bc3516110,Question,6,0,politics,NULL,How worried are you about bombs being sent to government officials?,a little worried,NULL,2174
1567188160,9abb6d5d9a8d81ffd982698bc3516110,Question,7,0,politics,NULL,How worried are you about taxpayer money being wasted?,a little worried,NULL,965
# Columns below this comment are as follows:
# 1. Time results were received.
# 2. MD5 hash of participant's IP address.
# 3. Controller name.
# 4. Item number.
# 5. Element number.
# 6. Type.
# 7. Group.
# 8. Field name.
# 9. Field value.
1567188160,9abb6d5d9a8d81ffd982698bc3516110,Form,8,0,subj_info,NULL,year,1987
1567188160,9abb6d5d9a8d81ffd982698bc3516110,Form,8,0,subj_info,NULL,language,English
1567188160,9abb6d5d9a8d81ffd982698bc3516110,Form,8,0,subj_info,NULL,idturk,A2Q1JUSJ9THUDZ
1567188160,9abb6d5d9a8d81ffd982698bc3516110,Form,8,0,subj_info,NULL,comment,
1567188160,9abb6d5d9a8d81ffd982698bc3516110,Form,8,0,subj_info,NULL,sex,male
1567188160,9abb6d5d9a8d81ffd982698bc3516110,Form,8,0,subj_info,NULL,politics,republican
1567188160,9abb6d5d9a8d81ffd982698bc3516110,Form,8,0,subj_info,NULL,_REACTION_TIME_,25356
#
# Results on Friday August 30 2019 18:02:40 UTC.
# USER AGENT: Mozilla/5.0 (Windows NT 6.3; Win64; x64) AppleWebKit/537.36 (KHTML, like Gecko) Chrome/76.0.3809.100 Safari/537.36
# Design number was non-random = 0
#
# Columns below this comment are as follows:
# 1. Time results were received.
# 2. MD5 hash of participant's IP address.
# 3. Controller name.
# 4. Item number.
# 5. Element number.
# 6. Type.
# 7. Group.
# 8. Field name.
# 9. Field value.
1567188161,e15c853ca7be40499a0379b251aae38d,Form,3,0,consent,NULL,,yes
1567188161,e15c853ca7be40499a0379b251aae38d,Form,3,0,consent,NULL,_REACTION_TIME_,5191
1567188161,e15c853ca7be40499a0379b251aae38d,Form,4,0,instructions,NULL,_REACTION_TIME_,2163
1567188161,e15c853ca7be40499a0379b251aae38d,Form,5,0,story,5,_REACTION_TIME_,1005
# Columns below this comment are as follows:
# 1. Time results were received.
# 2. MD5 hash of participant's IP address.
# 3. Controller name.
# 4. Item number.
# 5. Element number.
# 6. Type.
# 7. Group.
# 8. Question (NULL if none).
# 9. Answer.
# 10. Whether or not answer was correct (NULL if N/A).
# 11. Time taken to answer.
1567188161,e15c853ca7be40499a0379b251aae38d,Question,5,1,story,5,What's in the box%2C according to John?,a bomb,1,1090
1567188161,e15c853ca7be40499a0379b251aae38d,Question,5,2,story,5,What was really in the box?,a pillow,0,1482
1567188161,e15c853ca7be40499a0379b251aae38d,Question,5,3,story,5,Was John right about that?,no,1,2518
1567188161,e15c853ca7be40499a0379b251aae38d,Question,6,0,politics,NULL,How worried are you about bombs being sent to government officials?,a little worried,NULL,2230
1567188161,e15c853ca7be40499a0379b251aae38d,Question,7,0,politics,NULL,How worried are you about taxpayer money being wasted?,a little worried,NULL,1119
# Columns below this comment are as follows:
# 1. Time results were received.
# 2. MD5 hash of participant's IP address.
# 3. Controller name.
# 4. Item number.
# 5. Element number.
# 6. Type.
# 7. Group.
# 8. Field name.
# 9. Field value.
1567188161,e15c853ca7be40499a0379b251aae38d,Form,8,0,subj_info,NULL,year,1989
1567188161,e15c853ca7be40499a0379b251aae38d,Form,8,0,subj_info,NULL,language,english
1567188161,e15c853ca7be40499a0379b251aae38d,Form,8,0,subj_info,NULL,idturk,A147VBRVVLD9OW
1567188161,e15c853ca7be40499a0379b251aae38d,Form,8,0,subj_info,NULL,comment,good
1567188161,e15c853ca7be40499a0379b251aae38d,Form,8,0,subj_info,NULL,sex,male
1567188161,e15c853ca7be40499a0379b251aae38d,Form,8,0,subj_info,NULL,politics,republican
1567188161,e15c853ca7be40499a0379b251aae38d,Form,8,0,subj_info,NULL,_REACTION_TIME_,36645
#
# Results on Friday August 30 2019 18:03:00 UTC.
# USER AGENT: Mozilla/5.0 (Macintosh; Intel Mac OS X 10_11_6) AppleWebKit/537.36 (KHTML, like Gecko) Chrome/75.0.3770.142 Safari/537.36
# Design number was non-random = 2
#
# Columns below this comment are as follows:
# 1. Time results were received.
# 2. MD5 hash of participant's IP address.
# 3. Controller name.
# 4. Item number.
# 5. Element number.
# 6. Type.
# 7. Group.
# 8. Field name.
# 9. Field value.
1567188180,c1fbd01c8053e3d21b063fcd72133137,Form,3,0,consent,NULL,,yes
1567188180,c1fbd01c8053e3d21b063fcd72133137,Form,3,0,consent,NULL,_REACTION_TIME_,5194
1567188180,c1fbd01c8053e3d21b063fcd72133137,Form,4,0,instructions,NULL,_REACTION_TIME_,2284
1567188180,c1fbd01c8053e3d21b063fcd72133137,Form,5,0,story,5,_REACTION_TIME_,3387
# Columns below this comment are as follows:
# 1. Time results were received.
# 2. MD5 hash of participant's IP address.
# 3. Controller name.
# 4. Item number.
# 5. Element number.
# 6. Type.
# 7. Group.
# 8. Question (NULL if none).
# 9. Answer.
# 10. Whether or not answer was correct (NULL if N/A).
# 11. Time taken to answer.
1567188180,c1fbd01c8053e3d21b063fcd72133137,Question,5,1,story,5,What's in the box%2C according to John?,a bomb,1,2930
1567188180,c1fbd01c8053e3d21b063fcd72133137,Question,5,2,story,5,What was really in the box?,a pillow,0,2288
1567188180,c1fbd01c8053e3d21b063fcd72133137,Question,5,3,story,5,Was John right about that?,no,1,1701
1567188180,c1fbd01c8053e3d21b063fcd72133137,Question,7,0,politics,NULL,How worried are you about taxpayer money being wasted?,a little worried,NULL,5722
1567188180,c1fbd01c8053e3d21b063fcd72133137,Question,6,0,politics,NULL,How worried are you about bombs being sent to government officials?,a little worried,NULL,4595
# Columns below this comment are as follows:
# 1. Time results were received.
# 2. MD5 hash of participant's IP address.
# 3. Controller name.
# 4. Item number.
# 5. Element number.
# 6. Type.
# 7. Group.
# 8. Field name.
# 9. Field value.
1567188180,c1fbd01c8053e3d21b063fcd72133137,Form,8,0,subj_info,NULL,year,1997
1567188180,c1fbd01c8053e3d21b063fcd72133137,Form,8,0,subj_info,NULL,language,english
1567188180,c1fbd01c8053e3d21b063fcd72133137,Form,8,0,subj_info,NULL,idturk,A5SXOFI8D0DZQ
1567188180,c1fbd01c8053e3d21b063fcd72133137,Form,8,0,subj_info,NULL,comment,nope
1567188180,c1fbd01c8053e3d21b063fcd72133137,Form,8,0,subj_info,NULL,sex,female
1567188180,c1fbd01c8053e3d21b063fcd72133137,Form,8,0,subj_info,NULL,politics,republican
1567188180,c1fbd01c8053e3d21b063fcd72133137,Form,8,0,subj_info,NULL,_REACTION_TIME_,24290
#
# Results on Friday August 30 2019 18:03:09 UTC.
# USER AGENT: Mozilla/5.0 (Windows NT 6.3; Win64; x64) AppleWebKit/537.36 (KHTML, like Gecko) Chrome/76.0.3809.100 Safari/537.36
# Design number was non-random = 0
#
# Columns below this comment are as follows:
# 1. Time results were received.
# 2. MD5 hash of participant's IP address.
# 3. Controller name.
# 4. Item number.
# 5. Element number.
# 6. Type.
# 7. Group.
# 8. Field name.
# 9. Field value.
1567188189,d74934b6fb8b3535d7a8e4afc6e49200,Form,3,0,consent,NULL,,yes
1567188189,d74934b6fb8b3535d7a8e4afc6e49200,Form,3,0,consent,NULL,_REACTION_TIME_,12987
1567188189,d74934b6fb8b3535d7a8e4afc6e49200,Form,4,0,instructions,NULL,_REACTION_TIME_,3900
1567188189,d74934b6fb8b3535d7a8e4afc6e49200,Form,5,0,story,5,_REACTION_TIME_,33118
# Columns below this comment are as follows:
# 1. Time results were received.
# 2. MD5 hash of participant's IP address.
# 3. Controller name.
# 4. Item number.
# 5. Element number.
# 6. Type.
# 7. Group.
# 8. Question (NULL if none).
# 9. Answer.
# 10. Whether or not answer was correct (NULL if N/A).
# 11. Time taken to answer.
1567188189,d74934b6fb8b3535d7a8e4afc6e49200,Question,5,1,story,5,What's in the box%2C according to John?,a bomb,1,5908
1567188189,d74934b6fb8b3535d7a8e4afc6e49200,Question,5,2,story,5,What was really in the box?,a pillow,0,2139
1567188189,d74934b6fb8b3535d7a8e4afc6e49200,Question,5,3,story,5,Was John right about that?,no,1,3697
1567188189,d74934b6fb8b3535d7a8e4afc6e49200,Question,7,0,politics,NULL,How worried are you about taxpayer money being wasted?,a little worried,NULL,5894
1567188189,d74934b6fb8b3535d7a8e4afc6e49200,Question,6,0,politics,NULL,How worried are you about bombs being sent to government officials?,a little worried,NULL,3885
# Columns below this comment are as follows:
# 1. Time results were received.
# 2. MD5 hash of participant's IP address.
# 3. Controller name.
# 4. Item number.
# 5. Element number.
# 6. Type.
# 7. Group.
# 8. Field name.
# 9. Field value.
1567188189,d74934b6fb8b3535d7a8e4afc6e49200,Form,8,0,subj_info,NULL,year,1974
1567188189,d74934b6fb8b3535d7a8e4afc6e49200,Form,8,0,subj_info,NULL,language,english
1567188189,d74934b6fb8b3535d7a8e4afc6e49200,Form,8,0,subj_info,NULL,idturk,A1JKSAQ8UNCE7B
1567188189,d74934b6fb8b3535d7a8e4afc6e49200,Form,8,0,subj_info,NULL,comment,none
1567188189,d74934b6fb8b3535d7a8e4afc6e49200,Form,8,0,subj_info,NULL,sex,female
1567188189,d74934b6fb8b3535d7a8e4afc6e49200,Form,8,0,subj_info,NULL,politics,republican
1567188189,d74934b6fb8b3535d7a8e4afc6e49200,Form,8,0,subj_info,NULL,_REACTION_TIME_,27248
#
# Results on Friday August 30 2019 18:03:45 UTC.
# USER AGENT: Mozilla/5.0 (Windows NT 10.0; Win64; x64) AppleWebKit/537.36 (KHTML, like Gecko) Chrome/76.0.3809.132 Safari/537.36
# Design number was non-random = 5
#
# Columns below this comment are as follows:
# 1. Time results were received.
# 2. MD5 hash of participant's IP address.
# 3. Controller name.
# 4. Item number.
# 5. Element number.
# 6. Type.
# 7. Group.
# 8. Field name.
# 9. Field value.
1567188226,5c74d6d56aa40d08163a9240e0f6a971,Form,3,0,consent,NULL,,yes
1567188226,5c74d6d56aa40d08163a9240e0f6a971,Form,3,0,consent,NULL,_REACTION_TIME_,4382
1567188226,5c74d6d56aa40d08163a9240e0f6a971,Form,4,0,instructions,NULL,_REACTION_TIME_,1410
1567188226,5c74d6d56aa40d08163a9240e0f6a971,Form,5,0,story,5,_REACTION_TIME_,9869
# Columns below this comment are as follows:
# 1. Time results were received.
# 2. MD5 hash of participant's IP address.
# 3. Controller name.
# 4. Item number.
# 5. Element number.
# 6. Type.
# 7. Group.
# 8. Question (NULL if none).
# 9. Answer.
# 10. Whether or not answer was correct (NULL if N/A).
# 11. Time taken to answer.
1567188226,5c74d6d56aa40d08163a9240e0f6a971,Question,5,1,story,5,What's in the box%2C according to John?,a bomb,1,11011
1567188226,5c74d6d56aa40d08163a9240e0f6a971,Question,5,2,story,5,What was really in the box?,a pillow,0,2749
1567188226,5c74d6d56aa40d08163a9240e0f6a971,Question,5,3,story,5,Was John right about that?,no,1,1662
1567188226,5c74d6d56aa40d08163a9240e0f6a971,Question,7,0,politics,NULL,How worried are you about taxpayer money being wasted?,very worried,NULL,4414
1567188226,5c74d6d56aa40d08163a9240e0f6a971,Question,6,0,politics,NULL,How worried are you about bombs being sent to government officials?,very worried,NULL,2702
# Columns below this comment are as follows:
# 1. Time results were received.
# 2. MD5 hash of participant's IP address.
# 3. Controller name.
# 4. Item number.
# 5. Element number.
# 6. Type.
# 7. Group.
# 8. Field name.
# 9. Field value.
1567188226,5c74d6d56aa40d08163a9240e0f6a971,Form,8,0,subj_info,NULL,year,1981
1567188226,5c74d6d56aa40d08163a9240e0f6a971,Form,8,0,subj_info,NULL,language,english
1567188226,5c74d6d56aa40d08163a9240e0f6a971,Form,8,0,subj_info,NULL,idturk,A1T643M1P572AA
1567188226,5c74d6d56aa40d08163a9240e0f6a971,Form,8,0,subj_info,NULL,comment,not really
1567188226,5c74d6d56aa40d08163a9240e0f6a971,Form,8,0,subj_info,NULL,sex,male
1567188226,5c74d6d56aa40d08163a9240e0f6a971,Form,8,0,subj_info,NULL,politics,republican
1567188226,5c74d6d56aa40d08163a9240e0f6a971,Form,8,0,subj_info,NULL,_REACTION_TIME_,20981
#
# Results on Friday August 30 2019 18:03:51 UTC.
# USER AGENT: Mozilla/5.0 (Windows NT 10.0; Win64; x64) AppleWebKit/537.36 (KHTML, like Gecko) Chrome/76.0.3809.132 Safari/537.36
# Design number was non-random = 0
#
# Columns below this comment are as follows:
# 1. Time results were received.
# 2. MD5 hash of participant's IP address.
# 3. Controller name.
# 4. Item number.
# 5. Element number.
# 6. Type.
# 7. Group.
# 8. Field name.
# 9. Field value.
1567188231,1e248762a953ca6d3b95d61823587cbb,Form,3,0,consent,NULL,,yes
1567188231,1e248762a953ca6d3b95d61823587cbb,Form,3,0,consent,NULL,_REACTION_TIME_,137590
1567188231,1e248762a953ca6d3b95d61823587cbb,Form,4,0,instructions,NULL,_REACTION_TIME_,1031
1567188231,1e248762a953ca6d3b95d61823587cbb,Form,5,0,story,5,_REACTION_TIME_,3810
# Columns below this comment are as follows:
# 1. Time results were received.
# 2. MD5 hash of participant's IP address.
# 3. Controller name.
# 4. Item number.
# 5. Element number.
# 6. Type.
# 7. Group.
# 8. Question (NULL if none).
# 9. Answer.
# 10. Whether or not answer was correct (NULL if N/A).
# 11. Time taken to answer.
1567188231,1e248762a953ca6d3b95d61823587cbb,Question,5,1,story,5,What's in the box%2C according to John?,a bomb,1,7391
1567188231,1e248762a953ca6d3b95d61823587cbb,Question,5,2,story,5,What was really in the box?,a pillow,0,6847
1567188231,1e248762a953ca6d3b95d61823587cbb,Question,5,3,story,5,Was John right about that?,no,1,9684
1567188231,1e248762a953ca6d3b95d61823587cbb,Question,6,0,politics,NULL,How worried are you about bombs being sent to government officials?,a little worried,NULL,2595
1567188231,1e248762a953ca6d3b95d61823587cbb,Question,7,0,politics,NULL,How worried are you about taxpayer money being wasted?,a little worried,NULL,944
# Columns below this comment are as follows:
# 1. Time results were received.
# 2. MD5 hash of participant's IP address.
# 3. Controller name.
# 4. Item number.
# 5. Element number.
# 6. Type.
# 7. Group.
# 8. Field name.
# 9. Field value.
1567188231,1e248762a953ca6d3b95d61823587cbb,Form,8,0,subj_info,NULL,year,1993
1567188231,1e248762a953ca6d3b95d61823587cbb,Form,8,0,subj_info,NULL,language,English
1567188231,1e248762a953ca6d3b95d61823587cbb,Form,8,0,subj_info,NULL,idturk,A90JBLDKW71DX
1567188231,1e248762a953ca6d3b95d61823587cbb,Form,8,0,subj_info,NULL,comment,Thank you! :D
1567188231,1e248762a953ca6d3b95d61823587cbb,Form,8,0,subj_info,NULL,sex,female
1567188231,1e248762a953ca6d3b95d61823587cbb,Form,8,0,subj_info,NULL,politics,democrat
1567188231,1e248762a953ca6d3b95d61823587cbb,Form,8,0,subj_info,NULL,_REACTION_TIME_,17171
#
# Results on Friday August 30 2019 18:03:57 UTC.
# USER AGENT: Mozilla/5.0 (Windows NT 10.0; Win64; x64) AppleWebKit/537.36 (KHTML, like Gecko) Chrome/76.0.3809.100 Safari/537.36
# Design number was non-random = 6
#
# Columns below this comment are as follows:
# 1. Time results were received.
# 2. MD5 hash of participant's IP address.
# 3. Controller name.
# 4. Item number.
# 5. Element number.
# 6. Type.
# 7. Group.
# 8. Field name.
# 9. Field value.
1567188237,c67a2861249bc5061e1432ad58c544a0,Form,3,0,consent,NULL,,yes
1567188237,c67a2861249bc5061e1432ad58c544a0,Form,3,0,consent,NULL,_REACTION_TIME_,5514
1567188237,c67a2861249bc5061e1432ad58c544a0,Form,4,0,instructions,NULL,_REACTION_TIME_,2344
1567188237,c67a2861249bc5061e1432ad58c544a0,Form,5,0,story,5,_REACTION_TIME_,18549
# Columns below this comment are as follows:
# 1. Time results were received.
# 2. MD5 hash of participant's IP address.
# 3. Controller name.
# 4. Item number.
# 5. Element number.
# 6. Type.
# 7. Group.
# 8. Question (NULL if none).
# 9. Answer.
# 10. Whether or not answer was correct (NULL if N/A).
# 11. Time taken to answer.
1567188237,c67a2861249bc5061e1432ad58c544a0,Question,5,1,story,5,What's in the box%2C according to John?,a bomb,1,2557
1567188237,c67a2861249bc5061e1432ad58c544a0,Question,5,2,story,5,What was really in the box?,a pillow,0,1782
1567188237,c67a2861249bc5061e1432ad58c544a0,Question,5,3,story,5,Was John right about that?,no,1,1910
1567188237,c67a2861249bc5061e1432ad58c544a0,Question,6,0,politics,NULL,How worried are you about bombs being sent to government officials?,a little worried,NULL,4427
1567188237,c67a2861249bc5061e1432ad58c544a0,Question,7,0,politics,NULL,How worried are you about taxpayer money being wasted?,very worried,NULL,2579
# Columns below this comment are as follows:
# 1. Time results were received.
# 2. MD5 hash of participant's IP address.
# 3. Controller name.
# 4. Item number.
# 5. Element number.
# 6. Type.
# 7. Group.
# 8. Field name.
# 9. Field value.
1567188237,c67a2861249bc5061e1432ad58c544a0,Form,8,0,subj_info,NULL,year,1977
1567188237,c67a2861249bc5061e1432ad58c544a0,Form,8,0,subj_info,NULL,language,English
1567188237,c67a2861249bc5061e1432ad58c544a0,Form,8,0,subj_info,NULL,idturk,A2MCRVU8I9VNHG
1567188237,c67a2861249bc5061e1432ad58c544a0,Form,8,0,subj_info,NULL,comment,
1567188237,c67a2861249bc5061e1432ad58c544a0,Form,8,0,subj_info,NULL,sex,male
1567188237,c67a2861249bc5061e1432ad58c544a0,Form,8,0,subj_info,NULL,politics,other
1567188237,c67a2861249bc5061e1432ad58c544a0,Form,8,0,subj_info,NULL,_REACTION_TIME_,11598
#
# Results on Friday August 30 2019 18:04:40 UTC.
# USER AGENT: Mozilla/5.0 (iPhone; CPU iPhone OS 12_1_2 like Mac OS X) AppleWebKit/605.1.15 (KHTML, like Gecko) Version/12.0 Mobile/15E148 Safari/604.1
# Design number was non-random = 10
#
# Columns below this comment are as follows:
# 1. Time results were received.
# 2. MD5 hash of participant's IP address.
# 3. Controller name.
# 4. Item number.
# 5. Element number.
# 6. Type.
# 7. Group.
# 8. Field name.
# 9. Field value.
1567188281,20af2dd1fc8d02dddcd31ae930fcac47,Form,3,0,consent,NULL,,yes
1567188281,20af2dd1fc8d02dddcd31ae930fcac47,Form,3,0,consent,NULL,_REACTION_TIME_,2624
1567188281,20af2dd1fc8d02dddcd31ae930fcac47,Form,4,0,instructions,NULL,_REACTION_TIME_,1187
1567188281,20af2dd1fc8d02dddcd31ae930fcac47,Form,5,0,story,5,_REACTION_TIME_,7062
# Columns below this comment are as follows:
# 1. Time results were received.
# 2. MD5 hash of participant's IP address.
# 3. Controller name.
# 4. Item number.
# 5. Element number.
# 6. Type.
# 7. Group.
# 8. Question (NULL if none).
# 9. Answer.
# 10. Whether or not answer was correct (NULL if N/A).
# 11. Time taken to answer.
1567188281,20af2dd1fc8d02dddcd31ae930fcac47,Question,5,1,story,5,What's in the box%2C according to John?,a bomb,1,2597
1567188281,20af2dd1fc8d02dddcd31ae930fcac47,Question,5,2,story,5,What was really in the box?,a pillow,0,1523
1567188281,20af2dd1fc8d02dddcd31ae930fcac47,Question,5,3,story,5,Was John right about that?,no,1,1796
1567188281,20af2dd1fc8d02dddcd31ae930fcac47,Question,6,0,politics,NULL,How worried are you about bombs being sent to government officials?,a little worried,NULL,3307
1567188281,20af2dd1fc8d02dddcd31ae930fcac47,Question,7,0,politics,NULL,How worried are you about taxpayer money being wasted?,very worried,NULL,2037
# Columns below this comment are as follows:
# 1. Time results were received.
# 2. MD5 hash of participant's IP address.
# 3. Controller name.
# 4. Item number.
# 5. Element number.
# 6. Type.
# 7. Group.
# 8. Field name.
# 9. Field value.
1567188281,20af2dd1fc8d02dddcd31ae930fcac47,Form,8,0,subj_info,NULL,year,1982
1567188281,20af2dd1fc8d02dddcd31ae930fcac47,Form,8,0,subj_info,NULL,language,English
1567188281,20af2dd1fc8d02dddcd31ae930fcac47,Form,8,0,subj_info,NULL,idturk,A1G4DA61N4XPLL
1567188281,20af2dd1fc8d02dddcd31ae930fcac47,Form,8,0,subj_info,NULL,comment,
1567188281,20af2dd1fc8d02dddcd31ae930fcac47,Form,8,0,subj_info,NULL,sex,female
1567188281,20af2dd1fc8d02dddcd31ae930fcac47,Form,8,0,subj_info,NULL,politics,democrat
1567188281,20af2dd1fc8d02dddcd31ae930fcac47,Form,8,0,subj_info,NULL,_REACTION_TIME_,17506
#
# Results on Friday August 30 2019 18:04:57 UTC.
# USER AGENT: Mozilla/5.0 (X11; CrOS x86_64 12239.67.1) AppleWebKit/537.36 (KHTML, like Gecko) Chrome/76.0.3809.102 Safari/537.36
# Design number was non-random = 7
#
# Columns below this comment are as follows:
# 1. Time results were received.
# 2. MD5 hash of participant's IP address.
# 3. Controller name.
# 4. Item number.
# 5. Element number.
# 6. Type.
# 7. Group.
# 8. Field name.
# 9. Field value.
1567188297,5cbe7b86823768a6647f512d7edfa413,Form,3,0,consent,NULL,,yes
1567188297,5cbe7b86823768a6647f512d7edfa413,Form,3,0,consent,NULL,_REACTION_TIME_,9589
1567188297,5cbe7b86823768a6647f512d7edfa413,Form,4,0,instructions,NULL,_REACTION_TIME_,3365
1567188297,5cbe7b86823768a6647f512d7edfa413,Form,5,0,story,5,_REACTION_TIME_,32104
# Columns below this comment are as follows:
# 1. Time results were received.
# 2. MD5 hash of participant's IP address.
# 3. Controller name.
# 4. Item number.
# 5. Element number.
# 6. Type.
# 7. Group.
# 8. Question (NULL if none).
# 9. Answer.
# 10. Whether or not answer was correct (NULL if N/A).
# 11. Time taken to answer.
1567188297,5cbe7b86823768a6647f512d7edfa413,Question,5,1,story,5,What's in the box%2C according to John?,a bomb,1,2851
1567188297,5cbe7b86823768a6647f512d7edfa413,Question,5,2,story,5,What was really in the box?,a pillow,0,2262
1567188297,5cbe7b86823768a6647f512d7edfa413,Question,5,3,story,5,Was John right about that?,no,1,2244
1567188297,5cbe7b86823768a6647f512d7edfa413,Question,6,0,politics,NULL,How worried are you about bombs being sent to government officials?,a little worried,NULL,5062
1567188297,5cbe7b86823768a6647f512d7edfa413,Question,7,0,politics,NULL,How worried are you about taxpayer money being wasted?,very worried,NULL,4688
# Columns below this comment are as follows:
# 1. Time results were received.
# 2. MD5 hash of participant's IP address.
# 3. Controller name.
# 4. Item number.
# 5. Element number.
# 6. Type.
# 7. Group.
# 8. Field name.
# 9. Field value.
1567188297,5cbe7b86823768a6647f512d7edfa413,Form,8,0,subj_info,NULL,year,1987
1567188297,5cbe7b86823768a6647f512d7edfa413,Form,8,0,subj_info,NULL,language,English
1567188297,5cbe7b86823768a6647f512d7edfa413,Form,8,0,subj_info,NULL,idturk,A6A6AU8TT9XV1
1567188297,5cbe7b86823768a6647f512d7edfa413,Form,8,0,subj_info,NULL,comment,
1567188297,5cbe7b86823768a6647f512d7edfa413,Form,8,0,subj_info,NULL,sex,female
1567188297,5cbe7b86823768a6647f512d7edfa413,Form,8,0,subj_info,NULL,politics,other
1567188297,5cbe7b86823768a6647f512d7edfa413,Form,8,0,subj_info,NULL,_REACTION_TIME_,35309
#
# Results on Friday August 30 2019 18:05:10 UTC.
# USER AGENT: Mozilla/5.0 (Windows NT 10.0; Win64; x64) AppleWebKit/537.36 (KHTML, like Gecko) Chrome/75.0.3770.100 Safari/537.36
# Design number was non-random = 7
#
# Columns below this comment are as follows:
# 1. Time results were received.
# 2. MD5 hash of participant's IP address.
# 3. Controller name.
# 4. Item number.
# 5. Element number.
# 6. Type.
# 7. Group.
# 8. Field name.
# 9. Field value.
1567188310,130065471315ab8c1618afca1a5b3f41,Form,3,0,consent,NULL,,yes
1567188310,130065471315ab8c1618afca1a5b3f41,Form,3,0,consent,NULL,_REACTION_TIME_,9157
1567188310,130065471315ab8c1618afca1a5b3f41,Form,4,0,instructions,NULL,_REACTION_TIME_,2434
1567188310,130065471315ab8c1618afca1a5b3f41,Form,5,0,story,5,_REACTION_TIME_,17794
# Columns below this comment are as follows:
# 1. Time results were received.
# 2. MD5 hash of participant's IP address.
# 3. Controller name.
# 4. Item number.
# 5. Element number.
# 6. Type.
# 7. Group.
# 8. Question (NULL if none).
# 9. Answer.
# 10. Whether or not answer was correct (NULL if N/A).
# 11. Time taken to answer.
1567188310,130065471315ab8c1618afca1a5b3f41,Question,5,1,story,5,What's in the box%2C according to John?,a bomb,1,3695
1567188310,130065471315ab8c1618afca1a5b3f41,Question,5,2,story,5,What was really in the box?,a pillow,0,1885
1567188310,130065471315ab8c1618afca1a5b3f41,Question,5,3,story,5,Was John right about that?,no,1,1653
1567188310,130065471315ab8c1618afca1a5b3f41,Question,7,0,politics,NULL,How worried are you about taxpayer money being wasted?,a little worried,NULL,2992
1567188310,130065471315ab8c1618afca1a5b3f41,Question,6,0,politics,NULL,How worried are you about bombs being sent to government officials?,a little worried,NULL,2495
# Columns below this comment are as follows:
# 1. Time results were received.
# 2. MD5 hash of participant's IP address.
# 3. Controller name.
# 4. Item number.
# 5. Element number.
# 6. Type.
# 7. Group.
# 8. Field name.
# 9. Field value.
1567188310,130065471315ab8c1618afca1a5b3f41,Form,8,0,subj_info,NULL,year,1988
1567188310,130065471315ab8c1618afca1a5b3f41,Form,8,0,subj_info,NULL,language,English
1567188310,130065471315ab8c1618afca1a5b3f41,Form,8,0,subj_info,NULL,idturk,A1TR615HGENX1M
1567188310,130065471315ab8c1618afca1a5b3f41,Form,8,0,subj_info,NULL,comment,Give more time to complete the survey than 5 min.
1567188310,130065471315ab8c1618afca1a5b3f41,Form,8,0,subj_info,NULL,sex,female
1567188310,130065471315ab8c1618afca1a5b3f41,Form,8,0,subj_info,NULL,politics,democrat
1567188310,130065471315ab8c1618afca1a5b3f41,Form,8,0,subj_info,NULL,_REACTION_TIME_,44596
#
# Results on Friday August 30 2019 18:05:11 UTC.
# USER AGENT: Mozilla/5.0 (Windows NT 10.0; Win64; x64) AppleWebKit/537.36 (KHTML, like Gecko) Chrome/76.0.3809.132 Safari/537.36
# Design number was non-random = 10
#
# Columns below this comment are as follows:
# 1. Time results were received.
# 2. MD5 hash of participant's IP address.
# 3. Controller name.
# 4. Item number.
# 5. Element number.
# 6. Type.
# 7. Group.
# 8. Field name.
# 9. Field value.
1567188311,579dc2f7c7b785eb8becf2e48be63283,Form,3,0,consent,NULL,,yes
1567188311,579dc2f7c7b785eb8becf2e48be63283,Form,3,0,consent,NULL,_REACTION_TIME_,4454
1567188311,579dc2f7c7b785eb8becf2e48be63283,Form,4,0,instructions,NULL,_REACTION_TIME_,2291
1567188311,579dc2f7c7b785eb8becf2e48be63283,Form,5,0,story,5,_REACTION_TIME_,14879
# Columns below this comment are as follows:
# 1. Time results were received.
# 2. MD5 hash of participant's IP address.
# 3. Controller name.
# 4. Item number.
# 5. Element number.
# 6. Type.
# 7. Group.
# 8. Question (NULL if none).
# 9. Answer.
# 10. Whether or not answer was correct (NULL if N/A).
# 11. Time taken to answer.
1567188311,579dc2f7c7b785eb8becf2e48be63283,Question,5,1,story,5,What's in the box%2C according to John?,a bomb,1,3444
1567188311,579dc2f7c7b785eb8becf2e48be63283,Question,5,2,story,5,What was really in the box?,a pillow,0,1326
1567188311,579dc2f7c7b785eb8becf2e48be63283,Question,5,3,story,5,Was John right about that?,no,1,1623
1567188311,579dc2f7c7b785eb8becf2e48be63283,Question,6,0,politics,NULL,How worried are you about bombs being sent to government officials?,not at all worried,NULL,3799
1567188311,579dc2f7c7b785eb8becf2e48be63283,Question,7,0,politics,NULL,How worried are you about taxpayer money being wasted?,a little worried,NULL,2103
# Columns below this comment are as follows:
# 1. Time results were received.
# 2. MD5 hash of participant's IP address.
# 3. Controller name.
# 4. Item number.
# 5. Element number.
# 6. Type.
# 7. Group.
# 8. Field name.
# 9. Field value.
1567188311,579dc2f7c7b785eb8becf2e48be63283,Form,8,0,subj_info,NULL,year,1979
1567188311,579dc2f7c7b785eb8becf2e48be63283,Form,8,0,subj_info,NULL,language,English
1567188311,579dc2f7c7b785eb8becf2e48be63283,Form,8,0,subj_info,NULL,idturk,AIUOH9YE27PQ2
1567188311,579dc2f7c7b785eb8becf2e48be63283,Form,8,0,subj_info,NULL,comment,
1567188311,579dc2f7c7b785eb8becf2e48be63283,Form,8,0,subj_info,NULL,sex,male
1567188311,579dc2f7c7b785eb8becf2e48be63283,Form,8,0,subj_info,NULL,politics,republican
1567188311,579dc2f7c7b785eb8becf2e48be63283,Form,8,0,subj_info,NULL,_REACTION_TIME_,20519
#
# Results on Friday August 30 2019 18:06:34 UTC.
# USER AGENT: Mozilla/5.0 (Windows NT 10.0; Win64; x64) AppleWebKit/537.36 (KHTML, like Gecko) Chrome/76.0.3809.132 Safari/537.36
# Design number was non-random = 14
#
# Columns below this comment are as follows:
# 1. Time results were received.
# 2. MD5 hash of participant's IP address.
# 3. Controller name.
# 4. Item number.
# 5. Element number.
# 6. Type.
# 7. Group.
# 8. Field name.
# 9. Field value.
1567188394,de4a4b7f744a40d3bedc34a8941c89cb,Form,3,0,consent,NULL,,yes
1567188394,de4a4b7f744a40d3bedc34a8941c89cb,Form,3,0,consent,NULL,_REACTION_TIME_,8708
1567188394,de4a4b7f744a40d3bedc34a8941c89cb,Form,4,0,instructions,NULL,_REACTION_TIME_,1499
1567188394,de4a4b7f744a40d3bedc34a8941c89cb,Form,5,0,story,5,_REACTION_TIME_,24206
# Columns below this comment are as follows:
# 1. Time results were received.
# 2. MD5 hash of participant's IP address.
# 3. Controller name.
# 4. Item number.
# 5. Element number.
# 6. Type.
# 7. Group.
# 8. Question (NULL if none).
# 9. Answer.
# 10. Whether or not answer was correct (NULL if N/A).
# 11. Time taken to answer.
1567188394,de4a4b7f744a40d3bedc34a8941c89cb,Question,5,1,story,5,What's in the box%2C according to John?,a bomb,1,4084
1567188394,de4a4b7f744a40d3bedc34a8941c89cb,Question,5,2,story,5,What was really in the box?,a pillow,0,1165
1567188394,de4a4b7f744a40d3bedc34a8941c89cb,Question,5,3,story,5,Was John right about that?,no,1,1967
1567188394,de4a4b7f744a40d3bedc34a8941c89cb,Question,7,0,politics,NULL,How worried are you about taxpayer money being wasted?,a little worried,NULL,2670
1567188394,de4a4b7f744a40d3bedc34a8941c89cb,Question,6,0,politics,NULL,How worried are you about bombs being sent to government officials?,a little worried,NULL,2470
# Columns below this comment are as follows:
# 1. Time results were received.
# 2. MD5 hash of participant's IP address.
# 3. Controller name.
# 4. Item number.
# 5. Element number.
# 6. Type.
# 7. Group.
# 8. Field name.
# 9. Field value.
1567188394,de4a4b7f744a40d3bedc34a8941c89cb,Form,8,0,subj_info,NULL,year,1990
1567188394,de4a4b7f744a40d3bedc34a8941c89cb,Form,8,0,subj_info,NULL,language,English
1567188394,de4a4b7f744a40d3bedc34a8941c89cb,Form,8,0,subj_info,NULL,idturk,AT8SFBA7J41RD
1567188394,de4a4b7f744a40d3bedc34a8941c89cb,Form,8,0,subj_info,NULL,comment,
1567188394,de4a4b7f744a40d3bedc34a8941c89cb,Form,8,0,subj_info,NULL,sex,male
1567188394,de4a4b7f744a40d3bedc34a8941c89cb,Form,8,0,subj_info,NULL,politics,democrat
1567188394,de4a4b7f744a40d3bedc34a8941c89cb,Form,8,0,subj_info,NULL,_REACTION_TIME_,13785
#
# Results on Friday August 30 2019 18:07:37 UTC.
# USER AGENT: Mozilla/5.0 (Windows NT 6.1; Win64; x64) AppleWebKit/537.36 (KHTML, like Gecko) Chrome/76.0.3809.132 Safari/537.36
# Design number was non-random = 12
#
# Columns below this comment are as follows:
# 1. Time results were received.
# 2. MD5 hash of participant's IP address.
# 3. Controller name.
# 4. Item number.
# 5. Element number.
# 6. Type.
# 7. Group.
# 8. Field name.
# 9. Field value.
1567188458,af8f435075daca5fdb896995c642c4f2,Form,3,0,consent,NULL,,yes
1567188458,af8f435075daca5fdb896995c642c4f2,Form,3,0,consent,NULL,_REACTION_TIME_,41701
1567188458,af8f435075daca5fdb896995c642c4f2,Form,4,0,instructions,NULL,_REACTION_TIME_,6332
1567188458,af8f435075daca5fdb896995c642c4f2,Form,5,0,story,5,_REACTION_TIME_,24930
# Columns below this comment are as follows:
# 1. Time results were received.
# 2. MD5 hash of participant's IP address.
# 3. Controller name.
# 4. Item number.
# 5. Element number.
# 6. Type.
# 7. Group.
# 8. Question (NULL if none).
# 9. Answer.
# 10. Whether or not answer was correct (NULL if N/A).
# 11. Time taken to answer.
1567188458,af8f435075daca5fdb896995c642c4f2,Question,5,1,story,5,What's in the box%2C according to John?,a bomb,1,5138
1567188458,af8f435075daca5fdb896995c642c4f2,Question,5,2,story,5,What was really in the box?,a pillow,0,3085
1567188458,af8f435075daca5fdb896995c642c4f2,Question,5,3,story,5,Was John right about that?,no,1,4542
1567188458,af8f435075daca5fdb896995c642c4f2,Question,6,0,politics,NULL,How worried are you about bombs being sent to government officials?,a little worried,NULL,9631
1567188458,af8f435075daca5fdb896995c642c4f2,Question,7,0,politics,NULL,How worried are you about taxpayer money being wasted?,a little worried,NULL,5925
# Columns below this comment are as follows:
# 1. Time results were received.
# 2. MD5 hash of participant's IP address.
# 3. Controller name.
# 4. Item number.
# 5. Element number.
# 6. Type.
# 7. Group.
# 8. Field name.
# 9. Field value.
1567188458,af8f435075daca5fdb896995c642c4f2,Form,8,0,subj_info,NULL,year,1961
1567188458,af8f435075daca5fdb896995c642c4f2,Form,8,0,subj_info,NULL,language,English
1567188458,af8f435075daca5fdb896995c642c4f2,Form,8,0,subj_info,NULL,idturk,A1BXDWMLYDQNSK
1567188458,af8f435075daca5fdb896995c642c4f2,Form,8,0,subj_info,NULL,comment,
1567188458,af8f435075daca5fdb896995c642c4f2,Form,8,0,subj_info,NULL,sex,female
1567188458,af8f435075daca5fdb896995c642c4f2,Form,8,0,subj_info,NULL,politics,other
1567188458,af8f435075daca5fdb896995c642c4f2,Form,8,0,subj_info,NULL,_REACTION_TIME_,47023
#
# Results on Friday August 30 2019 18:07:40 UTC.
# USER AGENT: Mozilla/5.0 (Macintosh; Intel Mac OS X 10_14_6) AppleWebKit/537.36 (KHTML, like Gecko) Chrome/76.0.3809.100 Safari/537.36
# Design number was non-random = 15
#
# Columns below this comment are as follows:
# 1. Time results were received.
# 2. MD5 hash of participant's IP address.
# 3. Controller name.
# 4. Item number.
# 5. Element number.
# 6. Type.
# 7. Group.
# 8. Field name.
# 9. Field value.
1567188461,260797a48475e7a832f3171d9edee776,Form,3,0,consent,NULL,,yes
1567188461,260797a48475e7a832f3171d9edee776,Form,3,0,consent,NULL,_REACTION_TIME_,4551
1567188461,260797a48475e7a832f3171d9edee776,Form,4,0,instructions,NULL,_REACTION_TIME_,2053
1567188461,260797a48475e7a832f3171d9edee776,Form,5,0,story,5,_REACTION_TIME_,12714
# Columns below this comment are as follows:
# 1. Time results were received.
# 2. MD5 hash of participant's IP address.
# 3. Controller name.
# 4. Item number.
# 5. Element number.
# 6. Type.
# 7. Group.
# 8. Question (NULL if none).
# 9. Answer.
# 10. Whether or not answer was correct (NULL if N/A).
# 11. Time taken to answer.
1567188461,260797a48475e7a832f3171d9edee776,Question,5,1,story,5,What's in the box%2C according to John?,a bomb,1,2705
1567188461,260797a48475e7a832f3171d9edee776,Question,5,2,story,5,What was really in the box?,a pillow,0,1420
1567188461,260797a48475e7a832f3171d9edee776,Question,5,3,story,5,Was John right about that?,yes,0,1219
1567188461,260797a48475e7a832f3171d9edee776,Question,6,0,politics,NULL,How worried are you about bombs being sent to government officials?,not at all worried,NULL,2521
1567188461,260797a48475e7a832f3171d9edee776,Question,7,0,politics,NULL,How worried are you about taxpayer money being wasted?,a little worried,NULL,2309
# Columns below this comment are as follows:
# 1. Time results were received.
# 2. MD5 hash of participant's IP address.
# 3. Controller name.
# 4. Item number.
# 5. Element number.
# 6. Type.
# 7. Group.
# 8. Field name.
# 9. Field value.
1567188461,260797a48475e7a832f3171d9edee776,Form,8,0,subj_info,NULL,year,1987
1567188461,260797a48475e7a832f3171d9edee776,Form,8,0,subj_info,NULL,language,english
1567188461,260797a48475e7a832f3171d9edee776,Form,8,0,subj_info,NULL,idturk,A1C2T79XTDHE39
1567188461,260797a48475e7a832f3171d9edee776,Form,8,0,subj_info,NULL,comment,
1567188461,260797a48475e7a832f3171d9edee776,Form,8,0,subj_info,NULL,sex,female
1567188461,260797a48475e7a832f3171d9edee776,Form,8,0,subj_info,NULL,politics,democrat
1567188461,260797a48475e7a832f3171d9edee776,Form,8,0,subj_info,NULL,_REACTION_TIME_,11762
#
# Results on Friday August 30 2019 18:08:12 UTC.
# USER AGENT: Mozilla/5.0 (Windows NT 6.3; Win64; x64; rv:68.0) Gecko/20100101 Firefox/68.0
# Design number was non-random = 14
#
# Columns below this comment are as follows:
# 1. Time results were received.
# 2. MD5 hash of participant's IP address.
# 3. Controller name.
# 4. Item number.
# 5. Element number.
# 6. Type.
# 7. Group.
# 8. Field name.
# 9. Field value.
1567188492,5a46b6f9b71ffe9ad2f010c49a47442a,Form,3,0,consent,NULL,,yes
1567188492,5a46b6f9b71ffe9ad2f010c49a47442a,Form,3,0,consent,NULL,_REACTION_TIME_,11164
1567188492,5a46b6f9b71ffe9ad2f010c49a47442a,Form,4,0,instructions,NULL,_REACTION_TIME_,8189
1567188492,5a46b6f9b71ffe9ad2f010c49a47442a,Form,5,0,story,5,_REACTION_TIME_,25358
# Columns below this comment are as follows:
# 1. Time results were received.
# 2. MD5 hash of participant's IP address.
# 3. Controller name.
# 4. Item number.
# 5. Element number.
# 6. Type.
# 7. Group.
# 8. Question (NULL if none).
# 9. Answer.
# 10. Whether or not answer was correct (NULL if N/A).
# 11. Time taken to answer.
1567188492,5a46b6f9b71ffe9ad2f010c49a47442a,Question,5,1,story,5,What's in the box%2C according to John?,a bomb,1,4682
1567188492,5a46b6f9b71ffe9ad2f010c49a47442a,Question,5,2,story,5,What was really in the box?,a pillow,0,2631
1567188492,5a46b6f9b71ffe9ad2f010c49a47442a,Question,5,3,story,5,Was John right about that?,no,1,5175
1567188492,5a46b6f9b71ffe9ad2f010c49a47442a,Question,7,0,politics,NULL,How worried are you about taxpayer money being wasted?,a little worried,NULL,6370
1567188492,5a46b6f9b71ffe9ad2f010c49a47442a,Question,6,0,politics,NULL,How worried are you about bombs being sent to government officials?,a little worried,NULL,4073
# Columns below this comment are as follows:
# 1. Time results were received.
# 2. MD5 hash of participant's IP address.
# 3. Controller name.
# 4. Item number.
# 5. Element number.
# 6. Type.
# 7. Group.
# 8. Field name.
# 9. Field value.
1567188492,5a46b6f9b71ffe9ad2f010c49a47442a,Form,8,0,subj_info,NULL,year,1951
1567188492,5a46b6f9b71ffe9ad2f010c49a47442a,Form,8,0,subj_info,NULL,language,English
1567188492,5a46b6f9b71ffe9ad2f010c49a47442a,Form,8,0,subj_info,NULL,idturk,A3NV8GEG3IEEWG
1567188492,5a46b6f9b71ffe9ad2f010c49a47442a,Form,8,0,subj_info,NULL,comment,
1567188492,5a46b6f9b71ffe9ad2f010c49a47442a,Form,8,0,subj_info,NULL,sex,female
1567188492,5a46b6f9b71ffe9ad2f010c49a47442a,Form,8,0,subj_info,NULL,politics,republican
1567188492,5a46b6f9b71ffe9ad2f010c49a47442a,Form,8,0,subj_info,NULL,_REACTION_TIME_,49988
#
# Results on Friday August 30 2019 18:08:25 UTC.
# USER AGENT: Mozilla/5.0 (Windows NT 6.1; Win64; x64) AppleWebKit/537.36 (KHTML, like Gecko) Chrome/76.0.3809.100 Safari/537.36
# Design number was non-random = 10
#
# Columns below this comment are as follows:
# 1. Time results were received.
# 2. MD5 hash of participant's IP address.
# 3. Controller name.
# 4. Item number.
# 5. Element number.
# 6. Type.
# 7. Group.
# 8. Field name.
# 9. Field value.
1567188506,f74034788f141d13d357a444ef5adcab,Form,3,0,consent,NULL,,yes
1567188506,f74034788f141d13d357a444ef5adcab,Form,3,0,consent,NULL,_REACTION_TIME_,36262
1567188506,f74034788f141d13d357a444ef5adcab,Form,4,0,instructions,NULL,_REACTION_TIME_,17287
1567188506,f74034788f141d13d357a444ef5adcab,Form,5,0,story,5,_REACTION_TIME_,118624
# Columns below this comment are as follows:
# 1. Time results were received.
# 2. MD5 hash of participant's IP address.
# 3. Controller name.
# 4. Item number.
# 5. Element number.
# 6. Type.
# 7. Group.
# 8. Question (NULL if none).
# 9. Answer.
# 10. Whether or not answer was correct (NULL if N/A).
# 11. Time taken to answer.
1567188506,f74034788f141d13d357a444ef5adcab,Question,5,1,story,5,What's in the box%2C according to John?,a bomb,1,3466
1567188506,f74034788f141d13d357a444ef5adcab,Question,5,2,story,5,What was really in the box?,a bomb,1,1222
1567188506,f74034788f141d13d357a444ef5adcab,Question,5,3,story,5,Was John right about that?,yes,0,474
1567188506,f74034788f141d13d357a444ef5adcab,Question,6,0,politics,NULL,How worried are you about bombs being sent to government officials?,not at all worried,NULL,8780
1567188506,f74034788f141d13d357a444ef5adcab,Question,7,0,politics,NULL,How worried are you about taxpayer money being wasted?,a little worried,NULL,5465
# Columns below this comment are as follows:
# 1. Time results were received.
# 2. MD5 hash of participant's IP address.
# 3. Controller name.
# 4. Item number.
# 5. Element number.
# 6. Type.
# 7. Group.
# 8. Field name.
# 9. Field value.
1567188506,f74034788f141d13d357a444ef5adcab,Form,8,0,subj_info,NULL,year,1977
1567188506,f74034788f141d13d357a444ef5adcab,Form,8,0,subj_info,NULL,language,english
1567188506,f74034788f141d13d357a444ef5adcab,Form,8,0,subj_info,NULL,idturk,A2LSRC2KZUEFGR
1567188506,f74034788f141d13d357a444ef5adcab,Form,8,0,subj_info,NULL,comment,
1567188506,f74034788f141d13d357a444ef5adcab,Form,8,0,subj_info,NULL,sex,female
1567188506,f74034788f141d13d357a444ef5adcab,Form,8,0,subj_info,NULL,politics,democrat
1567188506,f74034788f141d13d357a444ef5adcab,Form,8,0,subj_info,NULL,_REACTION_TIME_,32845
#
# Results on Friday August 30 2019 18:08:37 UTC.
# USER AGENT: Mozilla/5.0 (Windows NT 6.3; Win64; x64) AppleWebKit/537.36 (KHTML, like Gecko) Chrome/76.0.3809.132 Safari/537.36
# Design number was non-random = 15
#
# Columns below this comment are as follows:
# 1. Time results were received.
# 2. MD5 hash of participant's IP address.
# 3. Controller name.
# 4. Item number.
# 5. Element number.
# 6. Type.
# 7. Group.
# 8. Field name.
# 9. Field value.
1567188517,57a0aad1c705b434848a3a3eaf754377,Form,3,0,consent,NULL,,yes
1567188517,57a0aad1c705b434848a3a3eaf754377,Form,3,0,consent,NULL,_REACTION_TIME_,48023
1567188517,57a0aad1c705b434848a3a3eaf754377,Form,4,0,instructions,NULL,_REACTION_TIME_,2976
1567188517,57a0aad1c705b434848a3a3eaf754377,Form,5,0,story,5,_REACTION_TIME_,34921
# Columns below this comment are as follows:
# 1. Time results were received.
# 2. MD5 hash of participant's IP address.
# 3. Controller name.
# 4. Item number.
# 5. Element number.
# 6. Type.
# 7. Group.
# 8. Question (NULL if none).
# 9. Answer.
# 10. Whether or not answer was correct (NULL if N/A).
# 11. Time taken to answer.
1567188517,57a0aad1c705b434848a3a3eaf754377,Question,5,1,story,5,What's in the box%2C according to John?,a bomb,1,4136
1567188517,57a0aad1c705b434848a3a3eaf754377,Question,5,2,story,5,What was really in the box?,a pillow,0,1434
1567188517,57a0aad1c705b434848a3a3eaf754377,Question,5,3,story,5,Was John right about that?,no,1,3106
1567188517,57a0aad1c705b434848a3a3eaf754377,Question,7,0,politics,NULL,How worried are you about taxpayer money being wasted?,very worried,NULL,3426
1567188517,57a0aad1c705b434848a3a3eaf754377,Question,6,0,politics,NULL,How worried are you about bombs being sent to government officials?,very worried,NULL,2354
# Columns below this comment are as follows:
# 1. Time results were received.
# 2. MD5 hash of participant's IP address.
# 3. Controller name.
# 4. Item number.
# 5. Element number.
# 6. Type.
# 7. Group.
# 8. Field name.
# 9. Field value.
1567188517,57a0aad1c705b434848a3a3eaf754377,Form,8,0,subj_info,NULL,year,1959
1567188517,57a0aad1c705b434848a3a3eaf754377,Form,8,0,subj_info,NULL,language,english
1567188517,57a0aad1c705b434848a3a3eaf754377,Form,8,0,subj_info,NULL,idturk,APIMRVTG43CPH
1567188517,57a0aad1c705b434848a3a3eaf754377,Form,8,0,subj_info,NULL,comment,
1567188517,57a0aad1c705b434848a3a3eaf754377,Form,8,0,subj_info,NULL,sex,female
1567188517,57a0aad1c705b434848a3a3eaf754377,Form,8,0,subj_info,NULL,politics,democrat
1567188517,57a0aad1c705b434848a3a3eaf754377,Form,8,0,subj_info,NULL,_REACTION_TIME_,21528
#
# Results on Friday August 30 2019 18:08:44 UTC.
# USER AGENT: Mozilla/5.0 (Macintosh; Intel Mac OS X 10_14_6) AppleWebKit/537.36 (KHTML, like Gecko) Chrome/76.0.3809.100 Safari/537.36
# Design number was non-random = 15
#
# Columns below this comment are as follows:
# 1. Time results were received.
# 2. MD5 hash of participant's IP address.
# 3. Controller name.
# 4. Item number.
# 5. Element number.
# 6. Type.
# 7. Group.
# 8. Field name.
# 9. Field value.
1567188524,092f0bf79c69e784fd7a2536e85a54f4,Form,3,0,consent,NULL,,yes
1567188524,092f0bf79c69e784fd7a2536e85a54f4,Form,3,0,consent,NULL,_REACTION_TIME_,11284
1567188524,092f0bf79c69e784fd7a2536e85a54f4,Form,4,0,instructions,NULL,_REACTION_TIME_,2180
1567188524,092f0bf79c69e784fd7a2536e85a54f4,Form,5,0,story,5,_REACTION_TIME_,22312
# Columns below this comment are as follows:
# 1. Time results were received.
# 2. MD5 hash of participant's IP address.
# 3. Controller name.
# 4. Item number.
# 5. Element number.
# 6. Type.
# 7. Group.
# 8. Question (NULL if none).
# 9. Answer.
# 10. Whether or not answer was correct (NULL if N/A).
# 11. Time taken to answer.
1567188524,092f0bf79c69e784fd7a2536e85a54f4,Question,5,1,story,5,What's in the box%2C according to John?,a bomb,1,3155
1567188524,092f0bf79c69e784fd7a2536e85a54f4,Question,5,2,story,5,What was really in the box?,a pillow,0,2151
1567188524,092f0bf79c69e784fd7a2536e85a54f4,Question,5,3,story,5,Was John right about that?,no,1,4763
1567188524,092f0bf79c69e784fd7a2536e85a54f4,Question,6,0,politics,NULL,How worried are you about bombs being sent to government officials?,not at all worried,NULL,4597
1567188524,092f0bf79c69e784fd7a2536e85a54f4,Question,7,0,politics,NULL,How worried are you about taxpayer money being wasted?,a little worried,NULL,3547
# Columns below this comment are as follows:
# 1. Time results were received.
# 2. MD5 hash of participant's IP address.
# 3. Controller name.
# 4. Item number.
# 5. Element number.
# 6. Type.
# 7. Group.
# 8. Field name.
# 9. Field value.
1567188524,092f0bf79c69e784fd7a2536e85a54f4,Form,8,0,subj_info,NULL,year,1974
1567188524,092f0bf79c69e784fd7a2536e85a54f4,Form,8,0,subj_info,NULL,language,English
1567188524,092f0bf79c69e784fd7a2536e85a54f4,Form,8,0,subj_info,NULL,idturk,A3K9A6JFCU1R8X
1567188524,092f0bf79c69e784fd7a2536e85a54f4,Form,8,0,subj_info,NULL,comment,
1567188524,092f0bf79c69e784fd7a2536e85a54f4,Form,8,0,subj_info,NULL,sex,female
1567188524,092f0bf79c69e784fd7a2536e85a54f4,Form,8,0,subj_info,NULL,politics,other
1567188524,092f0bf79c69e784fd7a2536e85a54f4,Form,8,0,subj_info,NULL,_REACTION_TIME_,24118
#
# Results on Friday August 30 2019 18:09:21 UTC.
# USER AGENT: Mozilla/5.0 (Windows NT 10.0; Win64; x64) AppleWebKit/537.36 (KHTML, like Gecko) Chrome/76.0.3809.100 Safari/537.36
# Design number was non-random = 19
#
# Columns below this comment are as follows:
# 1. Time results were received.
# 2. MD5 hash of participant's IP address.
# 3. Controller name.
# 4. Item number.
# 5. Element number.
# 6. Type.
# 7. Group.
# 8. Field name.
# 9. Field value.
1567188562,156bf3b6909dd2c598caef729e64f7ec,Form,3,0,consent,NULL,,yes
1567188562,156bf3b6909dd2c598caef729e64f7ec,Form,3,0,consent,NULL,_REACTION_TIME_,3276
1567188562,156bf3b6909dd2c598caef729e64f7ec,Form,4,0,instructions,NULL,_REACTION_TIME_,2100
1567188562,156bf3b6909dd2c598caef729e64f7ec,Form,5,0,story,5,_REACTION_TIME_,12002
# Columns below this comment are as follows:
# 1. Time results were received.
# 2. MD5 hash of participant's IP address.
# 3. Controller name.
# 4. Item number.
# 5. Element number.
# 6. Type.
# 7. Group.
# 8. Question (NULL if none).
# 9. Answer.
# 10. Whether or not answer was correct (NULL if N/A).
# 11. Time taken to answer.
1567188562,156bf3b6909dd2c598caef729e64f7ec,Question,5,1,story,5,What's in the box%2C according to John?,a pillow,0,1845
1567188562,156bf3b6909dd2c598caef729e64f7ec,Question,5,2,story,5,What was really in the box?,a pillow,0,2223
1567188562,156bf3b6909dd2c598caef729e64f7ec,Question,5,3,story,5,Was John right about that?,no,1,1601
1567188562,156bf3b6909dd2c598caef729e64f7ec,Question,7,0,politics,NULL,How worried are you about taxpayer money being wasted?,a little worried,NULL,3486
1567188562,156bf3b6909dd2c598caef729e64f7ec,Question,6,0,politics,NULL,How worried are you about bombs being sent to government officials?,a little worried,NULL,3102
# Columns below this comment are as follows:
# 1. Time results were received.
# 2. MD5 hash of participant's IP address.
# 3. Controller name.
# 4. Item number.
# 5. Element number.
# 6. Type.
# 7. Group.
# 8. Field name.
# 9. Field value.
1567188562,156bf3b6909dd2c598caef729e64f7ec,Form,8,0,subj_info,NULL,year,1999
1567188562,156bf3b6909dd2c598caef729e64f7ec,Form,8,0,subj_info,NULL,language,English
1567188562,156bf3b6909dd2c598caef729e64f7ec,Form,8,0,subj_info,NULL,idturk,A15ZVBPW77R3RU
1567188562,156bf3b6909dd2c598caef729e64f7ec,Form,8,0,subj_info,NULL,comment,
1567188562,156bf3b6909dd2c598caef729e64f7ec,Form,8,0,subj_info,NULL,sex,male
1567188562,156bf3b6909dd2c598caef729e64f7ec,Form,8,0,subj_info,NULL,politics,democrat
1567188562,156bf3b6909dd2c598caef729e64f7ec,Form,8,0,subj_info,NULL,_REACTION_TIME_,17846
#
# Results on Friday August 30 2019 18:09:27 UTC.
# USER AGENT: Mozilla/5.0 (Windows NT 10.0; Win64; x64) AppleWebKit/537.36 (KHTML, like Gecko) Chrome/76.0.3809.132 Safari/537.36
# Design number was non-random = 17
#
# Columns below this comment are as follows:
# 1. Time results were received.
# 2. MD5 hash of participant's IP address.
# 3. Controller name.
# 4. Item number.
# 5. Element number.
# 6. Type.
# 7. Group.
# 8. Field name.
# 9. Field value.
1567188568,8db23b754c0c81ca007bdf19b2871fc9,Form,3,0,consent,NULL,,yes
1567188568,8db23b754c0c81ca007bdf19b2871fc9,Form,3,0,consent,NULL,_REACTION_TIME_,13943
1567188568,8db23b754c0c81ca007bdf19b2871fc9,Form,4,0,instructions,NULL,_REACTION_TIME_,2700
1567188568,8db23b754c0c81ca007bdf19b2871fc9,Form,5,0,story,5,_REACTION_TIME_,26627
# Columns below this comment are as follows:
# 1. Time results were received.
# 2. MD5 hash of participant's IP address.
# 3. Controller name.
# 4. Item number.
# 5. Element number.
# 6. Type.
# 7. Group.
# 8. Question (NULL if none).
# 9. Answer.
# 10. Whether or not answer was correct (NULL if N/A).
# 11. Time taken to answer.
1567188568,8db23b754c0c81ca007bdf19b2871fc9,Question,5,1,story,5,What's in the box%2C according to John?,a bomb,1,5566
1567188568,8db23b754c0c81ca007bdf19b2871fc9,Question,5,2,story,5,What was really in the box?,a pillow,0,1582
1567188568,8db23b754c0c81ca007bdf19b2871fc9,Question,5,3,story,5,Was John right about that?,no,1,2574
1567188568,8db23b754c0c81ca007bdf19b2871fc9,Question,7,0,politics,NULL,How worried are you about taxpayer money being wasted?,not at all worried,NULL,3736
1567188568,8db23b754c0c81ca007bdf19b2871fc9,Question,6,0,politics,NULL,How worried are you about bombs being sent to government officials?,very worried,NULL,4378
# Columns below this comment are as follows:
# 1. Time results were received.
# 2. MD5 hash of participant's IP address.
# 3. Controller name.
# 4. Item number.
# 5. Element number.
# 6. Type.
# 7. Group.
# 8. Field name.
# 9. Field value.
1567188568,8db23b754c0c81ca007bdf19b2871fc9,Form,8,0,subj_info,NULL,year,1978
1567188568,8db23b754c0c81ca007bdf19b2871fc9,Form,8,0,subj_info,NULL,language,English
1567188568,8db23b754c0c81ca007bdf19b2871fc9,Form,8,0,subj_info,NULL,idturk,A2W434UNNBRS4L
1567188568,8db23b754c0c81ca007bdf19b2871fc9,Form,8,0,subj_info,NULL,comment,
1567188568,8db23b754c0c81ca007bdf19b2871fc9,Form,8,0,subj_info,NULL,sex,male
1567188568,8db23b754c0c81ca007bdf19b2871fc9,Form,8,0,subj_info,NULL,politics,democrat
1567188568,8db23b754c0c81ca007bdf19b2871fc9,Form,8,0,subj_info,NULL,_REACTION_TIME_,25924
#
# Results on Friday August 30 2019 18:10:24 UTC.
# USER AGENT: Mozilla/5.0 (Windows NT 6.3; Win64; x64) AppleWebKit/537.36 (KHTML, like Gecko) Chrome/76.0.3809.100 Safari/537.36
# Design number was non-random = 21
#
# Columns below this comment are as follows:
# 1. Time results were received.
# 2. MD5 hash of participant's IP address.
# 3. Controller name.
# 4. Item number.
# 5. Element number.
# 6. Type.
# 7. Group.
# 8. Field name.
# 9. Field value.
1567188625,b7700a22121a7bc00b981288bf202ac3,Form,3,0,consent,NULL,,yes
1567188625,b7700a22121a7bc00b981288bf202ac3,Form,3,0,consent,NULL,_REACTION_TIME_,9208
1567188625,b7700a22121a7bc00b981288bf202ac3,Form,4,0,instructions,NULL,_REACTION_TIME_,3261
1567188625,b7700a22121a7bc00b981288bf202ac3,Form,5,0,story,5,_REACTION_TIME_,31284
# Columns below this comment are as follows:
# 1. Time results were received.
# 2. MD5 hash of participant's IP address.
# 3. Controller name.
# 4. Item number.
# 5. Element number.
# 6. Type.
# 7. Group.
# 8. Question (NULL if none).
# 9. Answer.
# 10. Whether or not answer was correct (NULL if N/A).
# 11. Time taken to answer.
1567188625,b7700a22121a7bc00b981288bf202ac3,Question,5,1,story,5,What's in the box%2C according to John?,a bomb,1,2558
1567188625,b7700a22121a7bc00b981288bf202ac3,Question,5,2,story,5,What was really in the box?,a pillow,0,1445
1567188625,b7700a22121a7bc00b981288bf202ac3,Question,5,3,story,5,Was John right about that?,no,1,2099
1567188625,b7700a22121a7bc00b981288bf202ac3,Question,6,0,politics,NULL,How worried are you about bombs being sent to government officials?,not at all worried,NULL,3754
1567188625,b7700a22121a7bc00b981288bf202ac3,Question,7,0,politics,NULL,How worried are you about taxpayer money being wasted?,very worried,NULL,3077
# Columns below this comment are as follows:
# 1. Time results were received.
# 2. MD5 hash of participant's IP address.
# 3. Controller name.
# 4. Item number.
# 5. Element number.
# 6. Type.
# 7. Group.
# 8. Field name.
# 9. Field value.
1567188625,b7700a22121a7bc00b981288bf202ac3,Form,8,0,subj_info,NULL,year,1977
1567188625,b7700a22121a7bc00b981288bf202ac3,Form,8,0,subj_info,NULL,language,English
1567188625,b7700a22121a7bc00b981288bf202ac3,Form,8,0,subj_info,NULL,idturk,A1BZ1VD8V8VJML
1567188625,b7700a22121a7bc00b981288bf202ac3,Form,8,0,subj_info,NULL,comment,
1567188625,b7700a22121a7bc00b981288bf202ac3,Form,8,0,subj_info,NULL,sex,female
1567188625,b7700a22121a7bc00b981288bf202ac3,Form,8,0,subj_info,NULL,politics,democrat
1567188625,b7700a22121a7bc00b981288bf202ac3,Form,8,0,subj_info,NULL,_REACTION_TIME_,18299
#
# Results on Friday August 30 2019 18:10:35 UTC.
# USER AGENT: Mozilla/5.0 (Macintosh; Intel Mac OS X 10_13_6) AppleWebKit/537.36 (KHTML, like Gecko) Chrome/76.0.3809.100 Safari/537.36
# Design number was non-random = 23
#
# Columns below this comment are as follows:
# 1. Time results were received.
# 2. MD5 hash of participant's IP address.
# 3. Controller name.
# 4. Item number.
# 5. Element number.
# 6. Type.
# 7. Group.
# 8. Field name.
# 9. Field value.
1567188635,1f37d12873ce68130e83f2fa21f687a1,Form,3,0,consent,NULL,,yes
1567188635,1f37d12873ce68130e83f2fa21f687a1,Form,3,0,consent,NULL,_REACTION_TIME_,5419
1567188635,1f37d12873ce68130e83f2fa21f687a1,Form,4,0,instructions,NULL,_REACTION_TIME_,3558
1567188635,1f37d12873ce68130e83f2fa21f687a1,Form,5,0,story,5,_REACTION_TIME_,17332
# Columns below this comment are as follows:
# 1. Time results were received.
# 2. MD5 hash of participant's IP address.
# 3. Controller name.
# 4. Item number.
# 5. Element number.
# 6. Type.
# 7. Group.
# 8. Question (NULL if none).
# 9. Answer.
# 10. Whether or not answer was correct (NULL if N/A).
# 11. Time taken to answer.
1567188635,1f37d12873ce68130e83f2fa21f687a1,Question,5,1,story,5,What's in the box%2C according to John?,a bomb,1,2733
1567188635,1f37d12873ce68130e83f2fa21f687a1,Question,5,2,story,5,What was really in the box?,a pillow,0,1128
1567188635,1f37d12873ce68130e83f2fa21f687a1,Question,5,3,story,5,Was John right about that?,no,1,1644
1567188635,1f37d12873ce68130e83f2fa21f687a1,Question,7,0,politics,NULL,How worried are you about taxpayer money being wasted?,not at all worried,NULL,2630
1567188635,1f37d12873ce68130e83f2fa21f687a1,Question,6,0,politics,NULL,How worried are you about bombs being sent to government officials?,a little worried,NULL,2379
# Columns below this comment are as follows:
# 1. Time results were received.
# 2. MD5 hash of participant's IP address.
# 3. Controller name.
# 4. Item number.
# 5. Element number.
# 6. Type.
# 7. Group.
# 8. Field name.
# 9. Field value.
1567188635,1f37d12873ce68130e83f2fa21f687a1,Form,8,0,subj_info,NULL,year,1985
1567188635,1f37d12873ce68130e83f2fa21f687a1,Form,8,0,subj_info,NULL,language,english
1567188635,1f37d12873ce68130e83f2fa21f687a1,Form,8,0,subj_info,NULL,idturk,A34GCR8HT5VWLO
1567188635,1f37d12873ce68130e83f2fa21f687a1,Form,8,0,subj_info,NULL,comment,
1567188635,1f37d12873ce68130e83f2fa21f687a1,Form,8,0,subj_info,NULL,sex,female
1567188635,1f37d12873ce68130e83f2fa21f687a1,Form,8,0,subj_info,NULL,politics,democrat
1567188635,1f37d12873ce68130e83f2fa21f687a1,Form,8,0,subj_info,NULL,_REACTION_TIME_,15187
#
# Results on Friday August 30 2019 18:12:22 UTC.
# USER AGENT: Mozilla/5.0 (iPhone; CPU iPhone OS 12_4 like Mac OS X) AppleWebKit/605.1.15 (KHTML, like Gecko) Version/12.1.2 Mobile/15E148 Safari/604.1
# Design number was non-random = 25
#
# Columns below this comment are as follows:
# 1. Time results were received.
# 2. MD5 hash of participant's IP address.
# 3. Controller name.
# 4. Item number.
# 5. Element number.
# 6. Type.
# 7. Group.
# 8. Field name.
# 9. Field value.
1567188743,96c86974edd932cea80adacaae6607bb,Form,3,0,consent,NULL,,yes
1567188743,96c86974edd932cea80adacaae6607bb,Form,3,0,consent,NULL,_REACTION_TIME_,9445
1567188743,96c86974edd932cea80adacaae6607bb,Form,4,0,instructions,NULL,_REACTION_TIME_,3664
1567188743,96c86974edd932cea80adacaae6607bb,Form,5,0,story,5,_REACTION_TIME_,17358
# Columns below this comment are as follows:
# 1. Time results were received.
# 2. MD5 hash of participant's IP address.
# 3. Controller name.
# 4. Item number.
# 5. Element number.
# 6. Type.
# 7. Group.
# 8. Question (NULL if none).
# 9. Answer.
# 10. Whether or not answer was correct (NULL if N/A).
# 11. Time taken to answer.
1567188743,96c86974edd932cea80adacaae6607bb,Question,5,1,story,5,What's in the box%2C according to John?,a bomb,1,3349
1567188743,96c86974edd932cea80adacaae6607bb,Question,5,2,story,5,What was really in the box?,a pillow,0,1407
1567188743,96c86974edd932cea80adacaae6607bb,Question,5,3,story,5,Was John right about that?,no,1,3144
1567188743,96c86974edd932cea80adacaae6607bb,Question,6,0,politics,NULL,How worried are you about bombs being sent to government officials?,a little worried,NULL,2992
1567188743,96c86974edd932cea80adacaae6607bb,Question,7,0,politics,NULL,How worried are you about taxpayer money being wasted?,very worried,NULL,3006
# Columns below this comment are as follows:
# 1. Time results were received.
# 2. MD5 hash of participant's IP address.
# 3. Controller name.
# 4. Item number.
# 5. Element number.
# 6. Type.
# 7. Group.
# 8. Field name.
# 9. Field value.
1567188743,96c86974edd932cea80adacaae6607bb,Form,8,0,subj_info,NULL,year,1988
1567188743,96c86974edd932cea80adacaae6607bb,Form,8,0,subj_info,NULL,language,English
1567188743,96c86974edd932cea80adacaae6607bb,Form,8,0,subj_info,NULL,idturk,A1RFDV4UTNT60S
1567188743,96c86974edd932cea80adacaae6607bb,Form,8,0,subj_info,NULL,comment,
1567188743,96c86974edd932cea80adacaae6607bb,Form,8,0,subj_info,NULL,sex,female
1567188743,96c86974edd932cea80adacaae6607bb,Form,8,0,subj_info,NULL,politics,other
1567188743,96c86974edd932cea80adacaae6607bb,Form,8,0,subj_info,NULL,_REACTION_TIME_,20902
#
# Results on Friday August 30 2019 18:12:52 UTC.
# USER AGENT: Mozilla/5.0 (Windows NT 10.0; Win64; x64) AppleWebKit/537.36 (KHTML, like Gecko) Chrome/76.0.3809.132 Safari/537.36
# Design number was non-random = 24
#
# Columns below this comment are as follows:
# 1. Time results were received.
# 2. MD5 hash of participant's IP address.
# 3. Controller name.
# 4. Item number.
# 5. Element number.
# 6. Type.
# 7. Group.
# 8. Field name.
# 9. Field value.
1567188772,a5c9e404fd26b2046ed58e35cb990ed9,Form,3,0,consent,NULL,,yes
1567188772,a5c9e404fd26b2046ed58e35cb990ed9,Form,3,0,consent,NULL,_REACTION_TIME_,24527
1567188772,a5c9e404fd26b2046ed58e35cb990ed9,Form,4,0,instructions,NULL,_REACTION_TIME_,7739
1567188772,a5c9e404fd26b2046ed58e35cb990ed9,Form,5,0,story,5,_REACTION_TIME_,45975
# Columns below this comment are as follows:
# 1. Time results were received.
# 2. MD5 hash of participant's IP address.
# 3. Controller name.
# 4. Item number.
# 5. Element number.
# 6. Type.
# 7. Group.
# 8. Question (NULL if none).
# 9. Answer.
# 10. Whether or not answer was correct (NULL if N/A).
# 11. Time taken to answer.
1567188772,a5c9e404fd26b2046ed58e35cb990ed9,Question,5,1,story,5,What's in the box%2C according to John?,a bomb,1,8645
1567188772,a5c9e404fd26b2046ed58e35cb990ed9,Question,5,2,story,5,What was really in the box?,a pillow,0,3012
1567188772,a5c9e404fd26b2046ed58e35cb990ed9,Question,5,3,story,5,Was John right about that?,no,1,6647
1567188772,a5c9e404fd26b2046ed58e35cb990ed9,Question,7,0,politics,NULL,How worried are you about taxpayer money being wasted?,a little worried,NULL,9390
1567188772,a5c9e404fd26b2046ed58e35cb990ed9,Question,6,0,politics,NULL,How worried are you about bombs being sent to government officials?,very worried,NULL,5471
# Columns below this comment are as follows:
# 1. Time results were received.
# 2. MD5 hash of participant's IP address.
# 3. Controller name.
# 4. Item number.
# 5. Element number.
# 6. Type.
# 7. Group.
# 8. Field name.
# 9. Field value.
1567188772,a5c9e404fd26b2046ed58e35cb990ed9,Form,8,0,subj_info,NULL,year,1960
1567188772,a5c9e404fd26b2046ed58e35cb990ed9,Form,8,0,subj_info,NULL,language,English
1567188772,a5c9e404fd26b2046ed58e35cb990ed9,Form,8,0,subj_info,NULL,idturk,A13AJQGE68X82J
1567188772,a5c9e404fd26b2046ed58e35cb990ed9,Form,8,0,subj_info,NULL,comment,
1567188772,a5c9e404fd26b2046ed58e35cb990ed9,Form,8,0,subj_info,NULL,sex,male
1567188772,a5c9e404fd26b2046ed58e35cb990ed9,Form,8,0,subj_info,NULL,politics,other
1567188772,a5c9e404fd26b2046ed58e35cb990ed9,Form,8,0,subj_info,NULL,_REACTION_TIME_,26055
#
# Results on Friday August 30 2019 18:13:54 UTC.
# USER AGENT: Mozilla/5.0 (Macintosh; Intel Mac OS X 10_13_6) AppleWebKit/537.36 (KHTML, like Gecko) Chrome/77.0.3865.42 Safari/537.36
# Design number was non-random = 26
#
# Columns below this comment are as follows:
# 1. Time results were received.
# 2. MD5 hash of participant's IP address.
# 3. Controller name.
# 4. Item number.
# 5. Element number.
# 6. Type.
# 7. Group.
# 8. Field name.
# 9. Field value.
1567188835,c144f204f5f5896a4d6c7d8fe213fe73,Form,3,0,consent,NULL,,yes
1567188835,c144f204f5f5896a4d6c7d8fe213fe73,Form,3,0,consent,NULL,_REACTION_TIME_,11689
1567188835,c144f204f5f5896a4d6c7d8fe213fe73,Form,4,0,instructions,NULL,_REACTION_TIME_,3109
1567188835,c144f204f5f5896a4d6c7d8fe213fe73,Form,5,0,story,5,_REACTION_TIME_,20415
# Columns below this comment are as follows:
# 1. Time results were received.
# 2. MD5 hash of participant's IP address.
# 3. Controller name.
# 4. Item number.
# 5. Element number.
# 6. Type.
# 7. Group.
# 8. Question (NULL if none).
# 9. Answer.
# 10. Whether or not answer was correct (NULL if N/A).
# 11. Time taken to answer.
1567188835,c144f204f5f5896a4d6c7d8fe213fe73,Question,5,1,story,5,What's in the box%2C according to John?,a bomb,1,4835
1567188835,c144f204f5f5896a4d6c7d8fe213fe73,Question,5,2,story,5,What was really in the box?,a pillow,0,953
1567188835,c144f204f5f5896a4d6c7d8fe213fe73,Question,5,3,story,5,Was John right about that?,no,1,4623
1567188835,c144f204f5f5896a4d6c7d8fe213fe73,Question,6,0,politics,NULL,How worried are you about bombs being sent to government officials?,not at all worried,NULL,1761
1567188835,c144f204f5f5896a4d6c7d8fe213fe73,Question,7,0,politics,NULL,How worried are you about taxpayer money being wasted?,not at all worried,NULL,2520
# Columns below this comment are as follows:
# 1. Time results were received.
# 2. MD5 hash of participant's IP address.
# 3. Controller name.
# 4. Item number.
# 5. Element number.
# 6. Type.
# 7. Group.
# 8. Field name.
# 9. Field value.
1567188835,c144f204f5f5896a4d6c7d8fe213fe73,Form,8,0,subj_info,NULL,year,1995
1567188835,c144f204f5f5896a4d6c7d8fe213fe73,Form,8,0,subj_info,NULL,language,English
1567188835,c144f204f5f5896a4d6c7d8fe213fe73,Form,8,0,subj_info,NULL,idturk,AEX8AD7WN63KO
1567188835,c144f204f5f5896a4d6c7d8fe213fe73,Form,8,0,subj_info,NULL,comment,
1567188835,c144f204f5f5896a4d6c7d8fe213fe73,Form,8,0,subj_info,NULL,sex,female
1567188835,c144f204f5f5896a4d6c7d8fe213fe73,Form,8,0,subj_info,NULL,politics,democrat
1567188835,c144f204f5f5896a4d6c7d8fe213fe73,Form,8,0,subj_info,NULL,_REACTION_TIME_,12929
#
# Results on Friday August 30 2019 18:15:16 UTC.
# USER AGENT: Mozilla/5.0 (Macintosh; Intel Mac OS X 10_11_6) AppleWebKit/537.36 (KHTML, like Gecko) Chrome/76.0.3809.100 Safari/537.36
# Design number was non-random = 28
#
# Columns below this comment are as follows:
# 1. Time results were received.
# 2. MD5 hash of participant's IP address.
# 3. Controller name.
# 4. Item number.
# 5. Element number.
# 6. Type.
# 7. Group.
# 8. Field name.
# 9. Field value.
1567188916,d7598c543a1cc981bffa93ebad64429d,Form,3,0,consent,NULL,,yes
1567188916,d7598c543a1cc981bffa93ebad64429d,Form,3,0,consent,NULL,_REACTION_TIME_,6326
1567188916,d7598c543a1cc981bffa93ebad64429d,Form,4,0,instructions,NULL,_REACTION_TIME_,2191
1567188916,d7598c543a1cc981bffa93ebad64429d,Form,5,0,story,5,_REACTION_TIME_,14506
# Columns below this comment are as follows:
# 1. Time results were received.
# 2. MD5 hash of participant's IP address.
# 3. Controller name.
# 4. Item number.
# 5. Element number.
# 6. Type.
# 7. Group.
# 8. Question (NULL if none).
# 9. Answer.
# 10. Whether or not answer was correct (NULL if N/A).
# 11. Time taken to answer.
1567188916,d7598c543a1cc981bffa93ebad64429d,Question,5,1,story,5,What's in the box%2C according to John?,a bomb,1,5270
1567188916,d7598c543a1cc981bffa93ebad64429d,Question,5,2,story,5,What was really in the box?,a pillow,0,1438
1567188916,d7598c543a1cc981bffa93ebad64429d,Question,5,3,story,5,Was John right about that?,no,1,3375
1567188916,d7598c543a1cc981bffa93ebad64429d,Question,6,0,politics,NULL,How worried are you about bombs being sent to government officials?,not at all worried,NULL,4097
1567188916,d7598c543a1cc981bffa93ebad64429d,Question,7,0,politics,NULL,How worried are you about taxpayer money being wasted?,a little worried,NULL,3118
# Columns below this comment are as follows:
# 1. Time results were received.
# 2. MD5 hash of participant's IP address.
# 3. Controller name.
# 4. Item number.
# 5. Element number.
# 6. Type.
# 7. Group.
# 8. Field name.
# 9. Field value.
1567188916,d7598c543a1cc981bffa93ebad64429d,Form,8,0,subj_info,NULL,year,1984
1567188916,d7598c543a1cc981bffa93ebad64429d,Form,8,0,subj_info,NULL,language,English
1567188916,d7598c543a1cc981bffa93ebad64429d,Form,8,0,subj_info,NULL,idturk,AEW1HTLYMOOD7
1567188916,d7598c543a1cc981bffa93ebad64429d,Form,8,0,subj_info,NULL,comment,
1567188916,d7598c543a1cc981bffa93ebad64429d,Form,8,0,subj_info,NULL,sex,female
1567188916,d7598c543a1cc981bffa93ebad64429d,Form,8,0,subj_info,NULL,politics,republican
1567188916,d7598c543a1cc981bffa93ebad64429d,Form,8,0,subj_info,NULL,_REACTION_TIME_,22058
#
# Results on Friday August 30 2019 18:17:30 UTC.
# USER AGENT: Mozilla/5.0 (Windows NT 10.0; Win64; x64) AppleWebKit/537.36 (KHTML, like Gecko) Chrome/70.0.3538.102 Safari/537.36 Edge/18.18362
# Design number was non-random = 28
#
# Columns below this comment are as follows:
# 1. Time results were received.
# 2. MD5 hash of participant's IP address.
# 3. Controller name.
# 4. Item number.
# 5. Element number.
# 6. Type.
# 7. Group.
# 8. Field name.
# 9. Field value.
1567189051,14c7fb96dd8c085236dc5869daee9a1a,Form,3,0,consent,NULL,,yes
1567189051,14c7fb96dd8c085236dc5869daee9a1a,Form,3,0,consent,NULL,_REACTION_TIME_,47771
1567189051,14c7fb96dd8c085236dc5869daee9a1a,Form,4,0,instructions,NULL,_REACTION_TIME_,4283
1567189051,14c7fb96dd8c085236dc5869daee9a1a,Form,5,0,story,5,_REACTION_TIME_,30314
# Columns below this comment are as follows:
# 1. Time results were received.
# 2. MD5 hash of participant's IP address.
# 3. Controller name.
# 4. Item number.
# 5. Element number.
# 6. Type.
# 7. Group.
# 8. Question (NULL if none).
# 9. Answer.
# 10. Whether or not answer was correct (NULL if N/A).
# 11. Time taken to answer.
1567189051,14c7fb96dd8c085236dc5869daee9a1a,Question,5,1,story,5,What's in the box%2C according to John?,a bomb,1,2972
1567189051,14c7fb96dd8c085236dc5869daee9a1a,Question,5,2,story,5,What was really in the box?,a bomb,1,1192
1567189051,14c7fb96dd8c085236dc5869daee9a1a,Question,5,3,story,5,Was John right about that?,no,1,9397
1567189051,14c7fb96dd8c085236dc5869daee9a1a,Question,6,0,politics,NULL,How worried are you about bombs being sent to government officials?,very worried,NULL,11684
1567189051,14c7fb96dd8c085236dc5869daee9a1a,Question,7,0,politics,NULL,How worried are you about taxpayer money being wasted?,very worried,NULL,2321
# Columns below this comment are as follows:
# 1. Time results were received.
# 2. MD5 hash of participant's IP address.
# 3. Controller name.
# 4. Item number.
# 5. Element number.
# 6. Type.
# 7. Group.
# 8. Field name.
# 9. Field value.
1567189051,14c7fb96dd8c085236dc5869daee9a1a,Form,8,0,subj_info,NULL,year,1978
1567189051,14c7fb96dd8c085236dc5869daee9a1a,Form,8,0,subj_info,NULL,language,English
1567189051,14c7fb96dd8c085236dc5869daee9a1a,Form,8,0,subj_info,NULL,idturk,AHUP1CX7RM6P0
1567189051,14c7fb96dd8c085236dc5869daee9a1a,Form,8,0,subj_info,NULL,comment,
1567189051,14c7fb96dd8c085236dc5869daee9a1a,Form,8,0,subj_info,NULL,sex,female
1567189051,14c7fb96dd8c085236dc5869daee9a1a,Form,8,0,subj_info,NULL,politics,other
1567189051,14c7fb96dd8c085236dc5869daee9a1a,Form,8,0,subj_info,NULL,_REACTION_TIME_,37950
#
# Results on Friday August 30 2019 18:17:37 UTC.
# USER AGENT: Mozilla/5.0 (Windows NT 10.0; Win64; x64) AppleWebKit/537.36 (KHTML, like Gecko) Chrome/76.0.3809.100 Safari/537.36
# Design number was non-random = 29
#
# Columns below this comment are as follows:
# 1. Time results were received.
# 2. MD5 hash of participant's IP address.
# 3. Controller name.
# 4. Item number.
# 5. Element number.
# 6. Type.
# 7. Group.
# 8. Field name.
# 9. Field value.
1567189058,590c8b85defd9e581a3310ffad2a5fab,Form,3,0,consent,NULL,,yes
1567189058,590c8b85defd9e581a3310ffad2a5fab,Form,3,0,consent,NULL,_REACTION_TIME_,6452
1567189058,590c8b85defd9e581a3310ffad2a5fab,Form,4,0,instructions,NULL,_REACTION_TIME_,2670
1567189058,590c8b85defd9e581a3310ffad2a5fab,Form,5,0,story,5,_REACTION_TIME_,20901
# Columns below this comment are as follows:
# 1. Time results were received.
# 2. MD5 hash of participant's IP address.
# 3. Controller name.
# 4. Item number.
# 5. Element number.
# 6. Type.
# 7. Group.
# 8. Question (NULL if none).
# 9. Answer.
# 10. Whether or not answer was correct (NULL if N/A).
# 11. Time taken to answer.
1567189058,590c8b85defd9e581a3310ffad2a5fab,Question,5,1,story,5,What's in the box%2C according to John?,a bomb,1,4007
1567189058,590c8b85defd9e581a3310ffad2a5fab,Question,5,2,story,5,What was really in the box?,a pillow,0,1909
1567189058,590c8b85defd9e581a3310ffad2a5fab,Question,5,3,story,5,Was John right about that?,no,1,3157
1567189058,590c8b85defd9e581a3310ffad2a5fab,Question,6,0,politics,NULL,How worried are you about bombs being sent to government officials?,not at all worried,NULL,6593
1567189058,590c8b85defd9e581a3310ffad2a5fab,Question,7,0,politics,NULL,How worried are you about taxpayer money being wasted?,not at all worried,NULL,5353
# Columns below this comment are as follows:
# 1. Time results were received.
# 2. MD5 hash of participant's IP address.
# 3. Controller name.
# 4. Item number.
# 5. Element number.
# 6. Type.
# 7. Group.
# 8. Field name.
# 9. Field value.
1567189058,590c8b85defd9e581a3310ffad2a5fab,Form,8,0,subj_info,NULL,year,1984
1567189058,590c8b85defd9e581a3310ffad2a5fab,Form,8,0,subj_info,NULL,language,english
1567189058,590c8b85defd9e581a3310ffad2a5fab,Form,8,0,subj_info,NULL,idturk,ALZPRUP1H8BR8
1567189058,590c8b85defd9e581a3310ffad2a5fab,Form,8,0,subj_info,NULL,comment,
1567189058,590c8b85defd9e581a3310ffad2a5fab,Form,8,0,subj_info,NULL,sex,female
1567189058,590c8b85defd9e581a3310ffad2a5fab,Form,8,0,subj_info,NULL,politics,other
1567189058,590c8b85defd9e581a3310ffad2a5fab,Form,8,0,subj_info,NULL,_REACTION_TIME_,17226
#
# Results on Friday August 30 2019 18:18:51 UTC.
# USER AGENT: Mozilla/5.0 (Windows NT 10.0; Win64; x64; rv:68.0) Gecko/20100101 Firefox/68.0
# Design number was non-random = 29
#
# Columns below this comment are as follows:
# 1. Time results were received.
# 2. MD5 hash of participant's IP address.
# 3. Controller name.
# 4. Item number.
# 5. Element number.
# 6. Type.
# 7. Group.
# 8. Field name.
# 9. Field value.
1567189131,f247ed29a2944ec5d3329fedbb94dfbc,Form,3,0,consent,NULL,,yes
1567189131,f247ed29a2944ec5d3329fedbb94dfbc,Form,3,0,consent,NULL,_REACTION_TIME_,12838
1567189131,f247ed29a2944ec5d3329fedbb94dfbc,Form,4,0,instructions,NULL,_REACTION_TIME_,3390
1567189131,f247ed29a2944ec5d3329fedbb94dfbc,Form,5,0,story,5,_REACTION_TIME_,29314
# Columns below this comment are as follows:
# 1. Time results were received.
# 2. MD5 hash of participant's IP address.
# 3. Controller name.
# 4. Item number.
# 5. Element number.
# 6. Type.
# 7. Group.
# 8. Question (NULL if none).
# 9. Answer.
# 10. Whether or not answer was correct (NULL if N/A).
# 11. Time taken to answer.
1567189131,f247ed29a2944ec5d3329fedbb94dfbc,Question,5,1,story,5,What's in the box%2C according to John?,a bomb,1,3194
1567189131,f247ed29a2944ec5d3329fedbb94dfbc,Question,5,2,story,5,What was really in the box?,a pillow,0,1979
1567189131,f247ed29a2944ec5d3329fedbb94dfbc,Question,5,3,story,5,Was John right about that?,no,1,2622
1567189131,f247ed29a2944ec5d3329fedbb94dfbc,Question,7,0,politics,NULL,How worried are you about taxpayer money being wasted?,a little worried,NULL,6821
1567189131,f247ed29a2944ec5d3329fedbb94dfbc,Question,6,0,politics,NULL,How worried are you about bombs being sent to government officials?,very worried,NULL,2597
# Columns below this comment are as follows:
# 1. Time results were received.
# 2. MD5 hash of participant's IP address.
# 3. Controller name.
# 4. Item number.
# 5. Element number.
# 6. Type.
# 7. Group.
# 8. Field name.
# 9. Field value.
1567189131,f247ed29a2944ec5d3329fedbb94dfbc,Form,8,0,subj_info,NULL,year,1967
1567189131,f247ed29a2944ec5d3329fedbb94dfbc,Form,8,0,subj_info,NULL,language,English
1567189131,f247ed29a2944ec5d3329fedbb94dfbc,Form,8,0,subj_info,NULL,idturk,A1DT5FAIR4SRXK
1567189131,f247ed29a2944ec5d3329fedbb94dfbc,Form,8,0,subj_info,NULL,comment,
1567189131,f247ed29a2944ec5d3329fedbb94dfbc,Form,8,0,subj_info,NULL,sex,male
1567189131,f247ed29a2944ec5d3329fedbb94dfbc,Form,8,0,subj_info,NULL,politics,other
1567189131,f247ed29a2944ec5d3329fedbb94dfbc,Form,8,0,subj_info,NULL,_REACTION_TIME_,39142
#
# Results on Friday August 30 2019 18:20:43 UTC.
# USER AGENT: Mozilla/5.0 (Windows NT 10.0; Win64; x64) AppleWebKit/537.36 (KHTML, like Gecko) Chrome/76.0.3809.132 Safari/537.36
# Design number was non-random = 32
#
# Columns below this comment are as follows:
# 1. Time results were received.
# 2. MD5 hash of participant's IP address.
# 3. Controller name.
# 4. Item number.
# 5. Element number.
# 6. Type.
# 7. Group.
# 8. Field name.
# 9. Field value.
1567189243,86bd7db13beebbdeccde7d1ea11e7aa2,Form,3,0,consent,NULL,,yes
1567189243,86bd7db13beebbdeccde7d1ea11e7aa2,Form,3,0,consent,NULL,_REACTION_TIME_,2767
1567189243,86bd7db13beebbdeccde7d1ea11e7aa2,Form,4,0,instructions,NULL,_REACTION_TIME_,1621
1567189243,86bd7db13beebbdeccde7d1ea11e7aa2,Form,5,0,story,5,_REACTION_TIME_,9959
# Columns below this comment are as follows:
# 1. Time results were received.
# 2. MD5 hash of participant's IP address.
# 3. Controller name.
# 4. Item number.
# 5. Element number.
# 6. Type.
# 7. Group.
# 8. Question (NULL if none).
# 9. Answer.
# 10. Whether or not answer was correct (NULL if N/A).
# 11. Time taken to answer.
1567189243,86bd7db13beebbdeccde7d1ea11e7aa2,Question,5,1,story,5,What's in the box%2C according to John?,a bomb,1,3466
1567189243,86bd7db13beebbdeccde7d1ea11e7aa2,Question,5,2,story,5,What was really in the box?,a pillow,0,1120
1567189243,86bd7db13beebbdeccde7d1ea11e7aa2,Question,5,3,story,5,Was John right about that?,no,1,1928
1567189243,86bd7db13beebbdeccde7d1ea11e7aa2,Question,6,0,politics,NULL,How worried are you about bombs being sent to government officials?,a little worried,NULL,4185
1567189243,86bd7db13beebbdeccde7d1ea11e7aa2,Question,7,0,politics,NULL,How worried are you about taxpayer money being wasted?,a little worried,NULL,2682
# Columns below this comment are as follows:
# 1. Time results were received.
# 2. MD5 hash of participant's IP address.
# 3. Controller name.
# 4. Item number.
# 5. Element number.
# 6. Type.
# 7. Group.
# 8. Field name.
# 9. Field value.
1567189243,86bd7db13beebbdeccde7d1ea11e7aa2,Form,8,0,subj_info,NULL,year,1987
1567189243,86bd7db13beebbdeccde7d1ea11e7aa2,Form,8,0,subj_info,NULL,language,English
1567189243,86bd7db13beebbdeccde7d1ea11e7aa2,Form,8,0,subj_info,NULL,idturk,A3A6A30JN4KOTG
1567189243,86bd7db13beebbdeccde7d1ea11e7aa2,Form,8,0,subj_info,NULL,comment,
1567189243,86bd7db13beebbdeccde7d1ea11e7aa2,Form,8,0,subj_info,NULL,sex,male
1567189243,86bd7db13beebbdeccde7d1ea11e7aa2,Form,8,0,subj_info,NULL,politics,other
1567189243,86bd7db13beebbdeccde7d1ea11e7aa2,Form,8,0,subj_info,NULL,_REACTION_TIME_,18108
#
# Results on Friday August 30 2019 18:20:57 UTC.
# USER AGENT: Mozilla/5.0 (Windows NT 10.0; Win64; x64) AppleWebKit/537.36 (KHTML, like Gecko) Chrome/64.0.3282.140 Safari/537.36 Edge/17.17134
# Design number was non-random = 32
#
# Columns below this comment are as follows:
# 1. Time results were received.
# 2. MD5 hash of participant's IP address.
# 3. Controller name.
# 4. Item number.
# 5. Element number.
# 6. Type.
# 7. Group.
# 8. Field name.
# 9. Field value.
1567189257,4193ed216395d3fd5c83b674e64aa408,Form,3,0,consent,NULL,,yes
1567189257,4193ed216395d3fd5c83b674e64aa408,Form,3,0,consent,NULL,_REACTION_TIME_,3494
1567189257,4193ed216395d3fd5c83b674e64aa408,Form,4,0,instructions,NULL,_REACTION_TIME_,89393
1567189257,4193ed216395d3fd5c83b674e64aa408,Form,5,0,story,5,_REACTION_TIME_,3834
# Columns below this comment are as follows:
# 1. Time results were received.
# 2. MD5 hash of participant's IP address.
# 3. Controller name.
# 4. Item number.
# 5. Element number.
# 6. Type.
# 7. Group.
# 8. Question (NULL if none).
# 9. Answer.
# 10. Whether or not answer was correct (NULL if N/A).
# 11. Time taken to answer.
1567189257,4193ed216395d3fd5c83b674e64aa408,Question,5,1,story,5,What's in the box%2C according to John?,a bomb,1,1555
1567189257,4193ed216395d3fd5c83b674e64aa408,Question,5,2,story,5,What was really in the box?,a pillow,0,763
1567189257,4193ed216395d3fd5c83b674e64aa408,Question,5,3,story,5,Was John right about that?,no,1,1940
1567189257,4193ed216395d3fd5c83b674e64aa408,Question,7,0,politics,NULL,How worried are you about taxpayer money being wasted?,a little worried,NULL,1571
1567189257,4193ed216395d3fd5c83b674e64aa408,Question,6,0,politics,NULL,How worried are you about bombs being sent to government officials?,not at all worried,NULL,1578
# Columns below this comment are as follows:
# 1. Time results were received.
# 2. MD5 hash of participant's IP address.
# 3. Controller name.
# 4. Item number.
# 5. Element number.
# 6. Type.
# 7. Group.
# 8. Field name.
# 9. Field value.
1567189257,4193ed216395d3fd5c83b674e64aa408,Form,8,0,subj_info,NULL,year,1995
1567189257,4193ed216395d3fd5c83b674e64aa408,Form,8,0,subj_info,NULL,language,english
1567189257,4193ed216395d3fd5c83b674e64aa408,Form,8,0,subj_info,NULL,idturk,A2ITJNPW1LDUN7
1567189257,4193ed216395d3fd5c83b674e64aa408,Form,8,0,subj_info,NULL,comment,
1567189257,4193ed216395d3fd5c83b674e64aa408,Form,8,0,subj_info,NULL,sex,male
1567189257,4193ed216395d3fd5c83b674e64aa408,Form,8,0,subj_info,NULL,politics,democrat
1567189257,4193ed216395d3fd5c83b674e64aa408,Form,8,0,subj_info,NULL,_REACTION_TIME_,11989
#
# Results on Friday August 30 2019 18:23:25 UTC.
# USER AGENT: Mozilla/5.0 (Windows NT 10.0; Win64; x64) AppleWebKit/537.36 (KHTML, like Gecko) Chrome/76.0.3809.132 Safari/537.36
# Design number was non-random = 34
#
# Columns below this comment are as follows:
# 1. Time results were received.
# 2. MD5 hash of participant's IP address.
# 3. Controller name.
# 4. Item number.
# 5. Element number.
# 6. Type.
# 7. Group.
# 8. Field name.
# 9. Field value.
1567189405,dddeee76fc7dfabc9058191cb41c5b2f,Form,3,0,consent,NULL,,yes
1567189405,dddeee76fc7dfabc9058191cb41c5b2f,Form,3,0,consent,NULL,_REACTION_TIME_,19705
1567189405,dddeee76fc7dfabc9058191cb41c5b2f,Form,4,0,instructions,NULL,_REACTION_TIME_,3215
1567189405,dddeee76fc7dfabc9058191cb41c5b2f,Form,5,0,story,5,_REACTION_TIME_,22089
# Columns below this comment are as follows:
# 1. Time results were received.
# 2. MD5 hash of participant's IP address.
# 3. Controller name.
# 4. Item number.
# 5. Element number.
# 6. Type.
# 7. Group.
# 8. Question (NULL if none).
# 9. Answer.
# 10. Whether or not answer was correct (NULL if N/A).
# 11. Time taken to answer.
1567189405,dddeee76fc7dfabc9058191cb41c5b2f,Question,5,1,story,5,What's in the box%2C according to John?,a bomb,1,3750
1567189405,dddeee76fc7dfabc9058191cb41c5b2f,Question,5,2,story,5,What was really in the box?,a pillow,0,2220
1567189405,dddeee76fc7dfabc9058191cb41c5b2f,Question,5,3,story,5,Was John right about that?,no,1,2657
1567189405,dddeee76fc7dfabc9058191cb41c5b2f,Question,7,0,politics,NULL,How worried are you about taxpayer money being wasted?,a little worried,NULL,3920
1567189405,dddeee76fc7dfabc9058191cb41c5b2f,Question,6,0,politics,NULL,How worried are you about bombs being sent to government officials?,a little worried,NULL,3037
# Columns below this comment are as follows:
# 1. Time results were received.
# 2. MD5 hash of participant's IP address.
# 3. Controller name.
# 4. Item number.
# 5. Element number.
# 6. Type.
# 7. Group.
# 8. Field name.
# 9. Field value.
1567189405,dddeee76fc7dfabc9058191cb41c5b2f,Form,8,0,subj_info,NULL,year,1978
1567189405,dddeee76fc7dfabc9058191cb41c5b2f,Form,8,0,subj_info,NULL,language,English
1567189405,dddeee76fc7dfabc9058191cb41c5b2f,Form,8,0,subj_info,NULL,idturk,A3R1VS90K8VV82
1567189405,dddeee76fc7dfabc9058191cb41c5b2f,Form,8,0,subj_info,NULL,comment,
1567189405,dddeee76fc7dfabc9058191cb41c5b2f,Form,8,0,subj_info,NULL,sex,female
1567189405,dddeee76fc7dfabc9058191cb41c5b2f,Form,8,0,subj_info,NULL,politics,republican
1567189405,dddeee76fc7dfabc9058191cb41c5b2f,Form,8,0,subj_info,NULL,_REACTION_TIME_,28399
#
# Results on Friday August 30 2019 18:23:41 UTC.
# USER AGENT: Mozilla/5.0 (Windows NT 10.0; Win64; x64) AppleWebKit/537.36 (KHTML, like Gecko) Chrome/76.0.3809.132 Safari/537.36
# Design number was non-random = 31
#
# Columns below this comment are as follows:
# 1. Time results were received.
# 2. MD5 hash of participant's IP address.
# 3. Controller name.
# 4. Item number.
# 5. Element number.
# 6. Type.
# 7. Group.
# 8. Field name.
# 9. Field value.
1567189421,0f2c3a6141cfd3fa683e9b5fe134188d,Form,3,0,consent,NULL,,yes
1567189421,0f2c3a6141cfd3fa683e9b5fe134188d,Form,3,0,consent,NULL,_REACTION_TIME_,12554
1567189421,0f2c3a6141cfd3fa683e9b5fe134188d,Form,4,0,instructions,NULL,_REACTION_TIME_,115347
1567189421,0f2c3a6141cfd3fa683e9b5fe134188d,Form,5,0,story,5,_REACTION_TIME_,140830
# Columns below this comment are as follows:
# 1. Time results were received.
# 2. MD5 hash of participant's IP address.
# 3. Controller name.
# 4. Item number.
# 5. Element number.
# 6. Type.
# 7. Group.
# 8. Question (NULL if none).
# 9. Answer.
# 10. Whether or not answer was correct (NULL if N/A).
# 11. Time taken to answer.
1567189421,0f2c3a6141cfd3fa683e9b5fe134188d,Question,5,1,story,5,What's in the box%2C according to John?,a pillow,0,2604
1567189421,0f2c3a6141cfd3fa683e9b5fe134188d,Question,5,2,story,5,What was really in the box?,a pillow,0,2414
1567189421,0f2c3a6141cfd3fa683e9b5fe134188d,Question,5,3,story,5,Was John right about that?,no,1,3415
1567189421,0f2c3a6141cfd3fa683e9b5fe134188d,Question,6,0,politics,NULL,How worried are you about bombs being sent to government officials?,a little worried,NULL,4312
1567189421,0f2c3a6141cfd3fa683e9b5fe134188d,Question,7,0,politics,NULL,How worried are you about taxpayer money being wasted?,very worried,NULL,3494
# Columns below this comment are as follows:
# 1. Time results were received.
# 2. MD5 hash of participant's IP address.
# 3. Controller name.
# 4. Item number.
# 5. Element number.
# 6. Type.
# 7. Group.
# 8. Field name.
# 9. Field value.
1567189421,0f2c3a6141cfd3fa683e9b5fe134188d,Form,8,0,subj_info,NULL,year,1975
1567189421,0f2c3a6141cfd3fa683e9b5fe134188d,Form,8,0,subj_info,NULL,language,English
1567189421,0f2c3a6141cfd3fa683e9b5fe134188d,Form,8,0,subj_info,NULL,idturk,A2UYW04FGRX78S
1567189421,0f2c3a6141cfd3fa683e9b5fe134188d,Form,8,0,subj_info,NULL,comment,
1567189421,0f2c3a6141cfd3fa683e9b5fe134188d,Form,8,0,subj_info,NULL,sex,male
1567189421,0f2c3a6141cfd3fa683e9b5fe134188d,Form,8,0,subj_info,NULL,politics,other
1567189421,0f2c3a6141cfd3fa683e9b5fe134188d,Form,8,0,subj_info,NULL,_REACTION_TIME_,47016
#
# Results on Friday August 30 2019 18:24:49 UTC.
# USER AGENT: Mozilla/5.0 (Linux; Android 7.1.1; SM-T377T) AppleWebKit/537.36 (KHTML, like Gecko) Chrome/76.0.3809.111 Safari/537.36
# Design number was non-random = 34
#
# Columns below this comment are as follows:
# 1. Time results were received.
# 2. MD5 hash of participant's IP address.
# 3. Controller name.
# 4. Item number.
# 5. Element number.
# 6. Type.
# 7. Group.
# 8. Field name.
# 9. Field value.
1567189489,51a54e5d92356bbc90f570f7bc4cfc00,Form,3,0,consent,NULL,,yes
1567189489,51a54e5d92356bbc90f570f7bc4cfc00,Form,3,0,consent,NULL,_REACTION_TIME_,7829
1567189489,51a54e5d92356bbc90f570f7bc4cfc00,Form,4,0,instructions,NULL,_REACTION_TIME_,5809
1567189489,51a54e5d92356bbc90f570f7bc4cfc00,Form,5,0,story,5,_REACTION_TIME_,29948
# Columns below this comment are as follows:
# 1. Time results were received.
# 2. MD5 hash of participant's IP address.
# 3. Controller name.
# 4. Item number.
# 5. Element number.
# 6. Type.
# 7. Group.
# 8. Question (NULL if none).
# 9. Answer.
# 10. Whether or not answer was correct (NULL if N/A).
# 11. Time taken to answer.
1567189489,51a54e5d92356bbc90f570f7bc4cfc00,Question,5,1,story,5,What's in the box%2C according to John?,a bomb,1,3792
1567189489,51a54e5d92356bbc90f570f7bc4cfc00,Question,5,2,story,5,What was really in the box?,a pillow,0,2210
1567189489,51a54e5d92356bbc90f570f7bc4cfc00,Question,5,3,story,5,Was John right about that?,no,1,2528
1567189489,51a54e5d92356bbc90f570f7bc4cfc00,Question,7,0,politics,NULL,How worried are you about taxpayer money being wasted?,not at all worried,NULL,9602
1567189489,51a54e5d92356bbc90f570f7bc4cfc00,Question,6,0,politics,NULL,How worried are you about bombs being sent to government officials?,very worried,NULL,2993
# Columns below this comment are as follows:
# 1. Time results were received.
# 2. MD5 hash of participant's IP address.
# 3. Controller name.
# 4. Item number.
# 5. Element number.
# 6. Type.
# 7. Group.
# 8. Field name.
# 9. Field value.
1567189489,51a54e5d92356bbc90f570f7bc4cfc00,Form,8,0,subj_info,NULL,year,1983
1567189489,51a54e5d92356bbc90f570f7bc4cfc00,Form,8,0,subj_info,NULL,language,English
1567189489,51a54e5d92356bbc90f570f7bc4cfc00,Form,8,0,subj_info,NULL,idturk,A3PGCZCYMXQMZ8
1567189489,51a54e5d92356bbc90f570f7bc4cfc00,Form,8,0,subj_info,NULL,comment,
1567189489,51a54e5d92356bbc90f570f7bc4cfc00,Form,8,0,subj_info,NULL,sex,female
1567189489,51a54e5d92356bbc90f570f7bc4cfc00,Form,8,0,subj_info,NULL,politics,democrat
1567189489,51a54e5d92356bbc90f570f7bc4cfc00,Form,8,0,subj_info,NULL,_REACTION_TIME_,34027
#
# Results on Friday August 30 2019 18:25:24 UTC.
# USER AGENT: Mozilla/5.0 (Windows NT 10.0; Win64; x64) AppleWebKit/537.36 (KHTML, like Gecko) Chrome/76.0.3809.132 Safari/537.36
# Design number was non-random = 36
#
# Columns below this comment are as follows:
# 1. Time results were received.
# 2. MD5 hash of participant's IP address.
# 3. Controller name.
# 4. Item number.
# 5. Element number.
# 6. Type.
# 7. Group.
# 8. Field name.
# 9. Field value.
1567189525,a2be7400f586dd26da39cd917b4a8c03,Form,3,0,consent,NULL,,yes
1567189525,a2be7400f586dd26da39cd917b4a8c03,Form,3,0,consent,NULL,_REACTION_TIME_,10547
1567189525,a2be7400f586dd26da39cd917b4a8c03,Form,4,0,instructions,NULL,_REACTION_TIME_,2154
1567189525,a2be7400f586dd26da39cd917b4a8c03,Form,5,0,story,5,_REACTION_TIME_,2275
# Columns below this comment are as follows:
# 1. Time results were received.
# 2. MD5 hash of participant's IP address.
# 3. Controller name.
# 4. Item number.
# 5. Element number.
# 6. Type.
# 7. Group.
# 8. Question (NULL if none).
# 9. Answer.
# 10. Whether or not answer was correct (NULL if N/A).
# 11. Time taken to answer.
1567189525,a2be7400f586dd26da39cd917b4a8c03,Question,5,1,story,5,What's in the box%2C according to John?,a bomb,1,2286
1567189525,a2be7400f586dd26da39cd917b4a8c03,Question,5,2,story,5,What was really in the box?,a pillow,0,1537
1567189525,a2be7400f586dd26da39cd917b4a8c03,Question,5,3,story,5,Was John right about that?,yes,0,3854
1567189525,a2be7400f586dd26da39cd917b4a8c03,Question,7,0,politics,NULL,How worried are you about taxpayer money being wasted?,a little worried,NULL,7165
1567189525,a2be7400f586dd26da39cd917b4a8c03,Question,6,0,politics,NULL,How worried are you about bombs being sent to government officials?,a little worried,NULL,2278
# Columns below this comment are as follows:
# 1. Time results were received.
# 2. MD5 hash of participant's IP address.
# 3. Controller name.
# 4. Item number.
# 5. Element number.
# 6. Type.
# 7. Group.
# 8. Field name.
# 9. Field value.
1567189525,a2be7400f586dd26da39cd917b4a8c03,Form,8,0,subj_info,NULL,year,24
1567189525,a2be7400f586dd26da39cd917b4a8c03,Form,8,0,subj_info,NULL,language,ENGILSH
1567189525,a2be7400f586dd26da39cd917b4a8c03,Form,8,0,subj_info,NULL,idturk,A26ZOTITCH45QB
1567189525,a2be7400f586dd26da39cd917b4a8c03,Form,8,0,subj_info,NULL,comment,interesting
1567189525,a2be7400f586dd26da39cd917b4a8c03,Form,8,0,subj_info,NULL,sex,male
1567189525,a2be7400f586dd26da39cd917b4a8c03,Form,8,0,subj_info,NULL,politics,republican
1567189525,a2be7400f586dd26da39cd917b4a8c03,Form,8,0,subj_info,NULL,_REACTION_TIME_,31209
#
# Results on Friday August 30 2019 18:25:29 UTC.
# USER AGENT: Mozilla/5.0 (Windows NT 10.0; Win64; x64) AppleWebKit/537.36 (KHTML, like Gecko) Chrome/76.0.3809.132 Safari/537.36
# Design number was non-random = 34
#
# Columns below this comment are as follows:
# 1. Time results were received.
# 2. MD5 hash of participant's IP address.
# 3. Controller name.
# 4. Item number.
# 5. Element number.
# 6. Type.
# 7. Group.
# 8. Field name.
# 9. Field value.
1567189529,dc5d0c3d9d685ea7d90f05a11d96da7a,Form,3,0,consent,NULL,,yes
1567189529,dc5d0c3d9d685ea7d90f05a11d96da7a,Form,3,0,consent,NULL,_REACTION_TIME_,9202
1567189529,dc5d0c3d9d685ea7d90f05a11d96da7a,Form,4,0,instructions,NULL,_REACTION_TIME_,129285
1567189529,dc5d0c3d9d685ea7d90f05a11d96da7a,Form,5,0,story,5,_REACTION_TIME_,11637
# Columns below this comment are as follows:
# 1. Time results were received.
# 2. MD5 hash of participant's IP address.
# 3. Controller name.
# 4. Item number.
# 5. Element number.
# 6. Type.
# 7. Group.
# 8. Question (NULL if none).
# 9. Answer.
# 10. Whether or not answer was correct (NULL if N/A).
# 11. Time taken to answer.
1567189529,dc5d0c3d9d685ea7d90f05a11d96da7a,Question,5,1,story,5,What's in the box%2C according to John?,a bomb,1,2705
