#
# Results on Friday August 30 2019 18:01:28 UTC.
# USER AGENT: Mozilla/5.0 (Windows NT 10.0; Win64; x64) AppleWebKit/537.36 (KHTML, like Gecko) Chrome/76.0.3809.132 Safari/537.36
# Design number was non-random = 0
#
# Columns below this comment are as follows:
# 1. Time results were received.
# 2. MD5 hash of participant's IP address.
# 3. Controller name.
# 4. Item number.
# 5. Element number.
# 6. Type.
# 7. Group.
# 8. Field name.
# 9. Field value.
1567188089,b04eefd20a467edb48288d09b0dabdc3,Form,3,0,consent,NULL,,yes
1567188089,b04eefd20a467edb48288d09b0dabdc3,Form,3,0,consent,NULL,_REACTION_TIME_,2955
1567188089,b04eefd20a467edb48288d09b0dabdc3,Form,4,0,instructions,NULL,_REACTION_TIME_,912
1567188089,b04eefd20a467edb48288d09b0dabdc3,Form,5,0,story,15,_REACTION_TIME_,15493
# Columns below this comment are as follows:
# 1. Time results were received.
# 2. MD5 hash of participant's IP address.
# 3. Controller name.
# 4. Item number.
# 5. Element number.
# 6. Type.
# 7. Group.
# 8. Question (NULL if none).
# 9. Answer.
# 10. Whether or not answer was correct (NULL if N/A).
# 11. Time taken to answer.
1567188089,b04eefd20a467edb48288d09b0dabdc3,Question,5,1,story,15,According to Mary%2C what's in the box?,a bomb,1,3617
1567188089,b04eefd20a467edb48288d09b0dabdc3,Question,5,2,story,15,What was really in the box?,a pillow,0,1519
1567188089,b04eefd20a467edb48288d09b0dabdc3,Question,5,3,story,15,Was Mary right about that?,no,1,1433
1567188089,b04eefd20a467edb48288d09b0dabdc3,Question,7,0,politics,NULL,How worried are you about taxpayer money being wasted?,a little worried,NULL,3856
1567188089,b04eefd20a467edb48288d09b0dabdc3,Question,6,0,politics,NULL,How worried are you about bombs being sent to government officials?,a little worried,NULL,3307
# Columns below this comment are as follows:
# 1. Time results were received.
# 2. MD5 hash of participant's IP address.
# 3. Controller name.
# 4. Item number.
# 5. Element number.
# 6. Type.
# 7. Group.
# 8. Field name.
# 9. Field value.
1567188089,b04eefd20a467edb48288d09b0dabdc3,Form,8,0,subj_info,NULL,year,1992
1567188089,b04eefd20a467edb48288d09b0dabdc3,Form,8,0,subj_info,NULL,language,english
1567188089,b04eefd20a467edb48288d09b0dabdc3,Form,8,0,subj_info,NULL,idturk,A3NA0Y5FD5SDWH
1567188089,b04eefd20a467edb48288d09b0dabdc3,Form,8,0,subj_info,NULL,comment,
1567188089,b04eefd20a467edb48288d09b0dabdc3,Form,8,0,subj_info,NULL,sex,female
1567188089,b04eefd20a467edb48288d09b0dabdc3,Form,8,0,subj_info,NULL,politics,democrat
1567188089,b04eefd20a467edb48288d09b0dabdc3,Form,8,0,subj_info,NULL,_REACTION_TIME_,10259
#
# Results on Friday August 30 2019 18:02:03 UTC.
# USER AGENT: Mozilla/5.0 (Windows NT 10.0; Win64; x64) AppleWebKit/537.36 (KHTML, like Gecko) Chrome/76.0.3809.132 Safari/537.36
# Design number was non-random = 0
#
# Columns below this comment are as follows:
# 1. Time results were received.
# 2. MD5 hash of participant's IP address.
# 3. Controller name.
# 4. Item number.
# 5. Element number.
# 6. Type.
# 7. Group.
# 8. Field name.
# 9. Field value.
1567188123,6e97ccfd8c158cfc164bc9161049ea4f,Form,3,0,consent,NULL,,yes
1567188123,6e97ccfd8c158cfc164bc9161049ea4f,Form,3,0,consent,NULL,_REACTION_TIME_,7814
1567188123,6e97ccfd8c158cfc164bc9161049ea4f,Form,4,0,instructions,NULL,_REACTION_TIME_,2255
1567188123,6e97ccfd8c158cfc164bc9161049ea4f,Form,5,0,story,15,_REACTION_TIME_,20478
# Columns below this comment are as follows:
# 1. Time results were received.
# 2. MD5 hash of participant's IP address.
# 3. Controller name.
# 4. Item number.
# 5. Element number.
# 6. Type.
# 7. Group.
# 8. Question (NULL if none).
# 9. Answer.
# 10. Whether or not answer was correct (NULL if N/A).
# 11. Time taken to answer.
1567188123,6e97ccfd8c158cfc164bc9161049ea4f,Question,5,1,story,15,According to Mary%2C what's in the box?,a bomb,1,2319
1567188123,6e97ccfd8c158cfc164bc9161049ea4f,Question,5,2,story,15,What was really in the box?,a pillow,0,1503
1567188123,6e97ccfd8c158cfc164bc9161049ea4f,Question,5,3,story,15,Was Mary right about that?,no,1,3533
1567188123,6e97ccfd8c158cfc164bc9161049ea4f,Question,6,0,politics,NULL,How worried are you about bombs being sent to government officials?,a little worried,NULL,3483
1567188123,6e97ccfd8c158cfc164bc9161049ea4f,Question,7,0,politics,NULL,How worried are you about taxpayer money being wasted?,a little worried,NULL,5540
# Columns below this comment are as follows:
# 1. Time results were received.
# 2. MD5 hash of participant's IP address.
# 3. Controller name.
# 4. Item number.
# 5. Element number.
# 6. Type.
# 7. Group.
# 8. Field name.
# 9. Field value.
1567188123,6e97ccfd8c158cfc164bc9161049ea4f,Form,8,0,subj_info,NULL,year,1978
1567188123,6e97ccfd8c158cfc164bc9161049ea4f,Form,8,0,subj_info,NULL,language,English
1567188123,6e97ccfd8c158cfc164bc9161049ea4f,Form,8,0,subj_info,NULL,idturk,A35C0II2FFV18S
1567188123,6e97ccfd8c158cfc164bc9161049ea4f,Form,8,0,subj_info,NULL,comment,
1567188123,6e97ccfd8c158cfc164bc9161049ea4f,Form,8,0,subj_info,NULL,sex,female
1567188123,6e97ccfd8c158cfc164bc9161049ea4f,Form,8,0,subj_info,NULL,politics,democrat
1567188123,6e97ccfd8c158cfc164bc9161049ea4f,Form,8,0,subj_info,NULL,_REACTION_TIME_,13756
#
# Results on Friday August 30 2019 18:02:14 UTC.
# USER AGENT: Mozilla/5.0 (Windows NT 10.0; WOW64) AppleWebKit/537.36 (KHTML, like Gecko) Chrome/76.0.3809.100 Safari/537.36
# Design number was non-random = 0
#
# Columns below this comment are as follows:
# 1. Time results were received.
# 2. MD5 hash of participant's IP address.
# 3. Controller name.
# 4. Item number.
# 5. Element number.
# 6. Type.
# 7. Group.
# 8. Field name.
# 9. Field value.
1567188135,b812e0a1fce19622fe8bae2ea7ce48d1,Form,3,0,consent,NULL,,yes
1567188135,b812e0a1fce19622fe8bae2ea7ce48d1,Form,3,0,consent,NULL,_REACTION_TIME_,23416
1567188135,b812e0a1fce19622fe8bae2ea7ce48d1,Form,4,0,instructions,NULL,_REACTION_TIME_,2188
1567188135,b812e0a1fce19622fe8bae2ea7ce48d1,Form,5,0,story,15,_REACTION_TIME_,22903
# Columns below this comment are as follows:
# 1. Time results were received.
# 2. MD5 hash of participant's IP address.
# 3. Controller name.
# 4. Item number.
# 5. Element number.
# 6. Type.
# 7. Group.
# 8. Question (NULL if none).
# 9. Answer.
# 10. Whether or not answer was correct (NULL if N/A).
# 11. Time taken to answer.
1567188135,b812e0a1fce19622fe8bae2ea7ce48d1,Question,5,1,story,15,According to Mary%2C what's in the box?,a bomb,1,2956
1567188135,b812e0a1fce19622fe8bae2ea7ce48d1,Question,5,2,story,15,What was really in the box?,a pillow,0,1535
1567188135,b812e0a1fce19622fe8bae2ea7ce48d1,Question,5,3,story,15,Was Mary right about that?,no,1,2501
1567188135,b812e0a1fce19622fe8bae2ea7ce48d1,Question,6,0,politics,NULL,How worried are you about bombs being sent to government officials?,a little worried,NULL,2564
1567188135,b812e0a1fce19622fe8bae2ea7ce48d1,Question,7,0,politics,NULL,How worried are you about taxpayer money being wasted?,very worried,NULL,2351
# Columns below this comment are as follows:
# 1. Time results were received.
# 2. MD5 hash of participant's IP address.
# 3. Controller name.
# 4. Item number.
# 5. Element number.
# 6. Type.
# 7. Group.
# 8. Field name.
# 9. Field value.
1567188135,b812e0a1fce19622fe8bae2ea7ce48d1,Form,8,0,subj_info,NULL,year,1984
1567188135,b812e0a1fce19622fe8bae2ea7ce48d1,Form,8,0,subj_info,NULL,language,English
1567188135,b812e0a1fce19622fe8bae2ea7ce48d1,Form,8,0,subj_info,NULL,idturk,A3V4AW6DGWBHDO
1567188135,b812e0a1fce19622fe8bae2ea7ce48d1,Form,8,0,subj_info,NULL,comment,
1567188135,b812e0a1fce19622fe8bae2ea7ce48d1,Form,8,0,subj_info,NULL,sex,male
1567188135,b812e0a1fce19622fe8bae2ea7ce48d1,Form,8,0,subj_info,NULL,politics,democrat
1567188135,b812e0a1fce19622fe8bae2ea7ce48d1,Form,8,0,subj_info,NULL,_REACTION_TIME_,19344
#
# Results on Friday August 30 2019 18:02:26 UTC.
# USER AGENT: Mozilla/5.0 (Windows NT 10.0; Win64; x64) AppleWebKit/537.36 (KHTML, like Gecko) Chrome/76.0.3809.132 Safari/537.36
# Design number was non-random = 0
#
# Columns below this comment are as follows:
# 1. Time results were received.
# 2. MD5 hash of participant's IP address.
# 3. Controller name.
# 4. Item number.
# 5. Element number.
# 6. Type.
# 7. Group.
# 8. Field name.
# 9. Field value.
1567188146,84a6561c50986f1ffe16fc081d894e45,Form,3,0,consent,NULL,,yes
1567188146,84a6561c50986f1ffe16fc081d894e45,Form,3,0,consent,NULL,_REACTION_TIME_,7542
1567188146,84a6561c50986f1ffe16fc081d894e45,Form,4,0,instructions,NULL,_REACTION_TIME_,5464
1567188146,84a6561c50986f1ffe16fc081d894e45,Form,5,0,story,15,_REACTION_TIME_,18141
# Columns below this comment are as follows:
# 1. Time results were received.
# 2. MD5 hash of participant's IP address.
# 3. Controller name.
# 4. Item number.
# 5. Element number.
# 6. Type.
# 7. Group.
# 8. Question (NULL if none).
# 9. Answer.
# 10. Whether or not answer was correct (NULL if N/A).
# 11. Time taken to answer.
1567188146,84a6561c50986f1ffe16fc081d894e45,Question,5,1,story,15,According to Mary%2C what's in the box?,a bomb,1,6067
1567188146,84a6561c50986f1ffe16fc081d894e45,Question,5,2,story,15,What was really in the box?,a pillow,0,3149
1567188146,84a6561c50986f1ffe16fc081d894e45,Question,5,3,story,15,Was Mary right about that?,no,1,1927
1567188146,84a6561c50986f1ffe16fc081d894e45,Question,7,0,politics,NULL,How worried are you about taxpayer money being wasted?,a little worried,NULL,4111
1567188146,84a6561c50986f1ffe16fc081d894e45,Question,6,0,politics,NULL,How worried are you about bombs being sent to government officials?,a little worried,NULL,3461
# Columns below this comment are as follows:
# 1. Time results were received.
# 2. MD5 hash of participant's IP address.
# 3. Controller name.
# 4. Item number.
# 5. Element number.
# 6. Type.
# 7. Group.
# 8. Field name.
# 9. Field value.
1567188146,84a6561c50986f1ffe16fc081d894e45,Form,8,0,subj_info,NULL,year,1993
1567188146,84a6561c50986f1ffe16fc081d894e45,Form,8,0,subj_info,NULL,language,English
1567188146,84a6561c50986f1ffe16fc081d894e45,Form,8,0,subj_info,NULL,idturk,A1Y6VW621TEYXN
1567188146,84a6561c50986f1ffe16fc081d894e45,Form,8,0,subj_info,NULL,comment,
1567188146,84a6561c50986f1ffe16fc081d894e45,Form,8,0,subj_info,NULL,sex,male
1567188146,84a6561c50986f1ffe16fc081d894e45,Form,8,0,subj_info,NULL,politics,republican
1567188146,84a6561c50986f1ffe16fc081d894e45,Form,8,0,subj_info,NULL,_REACTION_TIME_,20472
#
# Results on Friday August 30 2019 18:02:37 UTC.
# USER AGENT: Mozilla/5.0 (Macintosh; Intel Mac OS X 10_13_6) AppleWebKit/537.36 (KHTML, like Gecko) Chrome/76.0.3809.100 Safari/537.36
# Design number was non-random = 1
#
# Columns below this comment are as follows:
# 1. Time results were received.
# 2. MD5 hash of participant's IP address.
# 3. Controller name.
# 4. Item number.
# 5. Element number.
# 6. Type.
# 7. Group.
# 8. Field name.
# 9. Field value.
1567188157,a734f9090c7dff9208a7257c9aabb021,Form,3,0,consent,NULL,,yes
1567188157,a734f9090c7dff9208a7257c9aabb021,Form,3,0,consent,NULL,_REACTION_TIME_,8087
1567188157,a734f9090c7dff9208a7257c9aabb021,Form,4,0,instructions,NULL,_REACTION_TIME_,1504
1567188157,a734f9090c7dff9208a7257c9aabb021,Form,5,0,story,15,_REACTION_TIME_,18103
# Columns below this comment are as follows:
# 1. Time results were received.
# 2. MD5 hash of participant's IP address.
# 3. Controller name.
# 4. Item number.
# 5. Element number.
# 6. Type.
# 7. Group.
# 8. Question (NULL if none).
# 9. Answer.
# 10. Whether or not answer was correct (NULL if N/A).
# 11. Time taken to answer.
1567188157,a734f9090c7dff9208a7257c9aabb021,Question,5,1,story,15,According to Mary%2C what's in the box?,a bomb,1,2970
1567188157,a734f9090c7dff9208a7257c9aabb021,Question,5,2,story,15,What was really in the box?,a pillow,0,1427
1567188157,a734f9090c7dff9208a7257c9aabb021,Question,5,3,story,15,Was Mary right about that?,no,1,1687
1567188157,a734f9090c7dff9208a7257c9aabb021,Question,7,0,politics,NULL,How worried are you about taxpayer money being wasted?,very worried,NULL,3583
1567188157,a734f9090c7dff9208a7257c9aabb021,Question,6,0,politics,NULL,How worried are you about bombs being sent to government officials?,not at all worried,NULL,3847
# Columns below this comment are as follows:
# 1. Time results were received.
# 2. MD5 hash of participant's IP address.
# 3. Controller name.
# 4. Item number.
# 5. Element number.
# 6. Type.
# 7. Group.
# 8. Field name.
# 9. Field value.
1567188157,a734f9090c7dff9208a7257c9aabb021,Form,8,0,subj_info,NULL,year,1988
1567188157,a734f9090c7dff9208a7257c9aabb021,Form,8,0,subj_info,NULL,language,english
1567188157,a734f9090c7dff9208a7257c9aabb021,Form,8,0,subj_info,NULL,idturk,AKIVKZX0MUZ6H
1567188157,a734f9090c7dff9208a7257c9aabb021,Form,8,0,subj_info,NULL,comment,
1567188157,a734f9090c7dff9208a7257c9aabb021,Form,8,0,subj_info,NULL,sex,male
1567188157,a734f9090c7dff9208a7257c9aabb021,Form,8,0,subj_info,NULL,politics,other
1567188157,a734f9090c7dff9208a7257c9aabb021,Form,8,0,subj_info,NULL,_REACTION_TIME_,12675
#
# Results on Friday August 30 2019 18:02:42 UTC.
# USER AGENT: Mozilla/5.0 (Windows NT 10.0; Win64; x64) AppleWebKit/537.36 (KHTML, like Gecko) Chrome/76.0.3809.132 Safari/537.36
# Design number was non-random = 1
#
# Columns below this comment are as follows:
# 1. Time results were received.
# 2. MD5 hash of participant's IP address.
# 3. Controller name.
# 4. Item number.
# 5. Element number.
# 6. Type.
# 7. Group.
# 8. Field name.
# 9. Field value.
1567188163,2ff58ae664c5643b52cac8f3136a520f,Form,3,0,consent,NULL,,yes
1567188163,2ff58ae664c5643b52cac8f3136a520f,Form,3,0,consent,NULL,_REACTION_TIME_,3905
1567188163,2ff58ae664c5643b52cac8f3136a520f,Form,4,0,instructions,NULL,_REACTION_TIME_,1872
1567188163,2ff58ae664c5643b52cac8f3136a520f,Form,5,0,story,15,_REACTION_TIME_,11125
# Columns below this comment are as follows:
# 1. Time results were received.
# 2. MD5 hash of participant's IP address.
# 3. Controller name.
# 4. Item number.
# 5. Element number.
# 6. Type.
# 7. Group.
# 8. Question (NULL if none).
# 9. Answer.
# 10. Whether or not answer was correct (NULL if N/A).
# 11. Time taken to answer.
1567188163,2ff58ae664c5643b52cac8f3136a520f,Question,5,1,story,15,According to Mary%2C what's in the box?,a bomb,1,1726
1567188163,2ff58ae664c5643b52cac8f3136a520f,Question,5,2,story,15,What was really in the box?,a pillow,0,1529
1567188163,2ff58ae664c5643b52cac8f3136a520f,Question,5,3,story,15,Was Mary right about that?,no,1,2548
1567188163,2ff58ae664c5643b52cac8f3136a520f,Question,7,0,politics,NULL,How worried are you about taxpayer money being wasted?,not at all worried,NULL,2787
1567188163,2ff58ae664c5643b52cac8f3136a520f,Question,6,0,politics,NULL,How worried are you about bombs being sent to government officials?,a little worried,NULL,2172
# Columns below this comment are as follows:
# 1. Time results were received.
# 2. MD5 hash of participant's IP address.
# 3. Controller name.
# 4. Item number.
# 5. Element number.
# 6. Type.
# 7. Group.
# 8. Field name.
# 9. Field value.
1567188163,2ff58ae664c5643b52cac8f3136a520f,Form,8,0,subj_info,NULL,year,1998
1567188163,2ff58ae664c5643b52cac8f3136a520f,Form,8,0,subj_info,NULL,language,English
1567188163,2ff58ae664c5643b52cac8f3136a520f,Form,8,0,subj_info,NULL,idturk,A1Y784OOM59O4D
1567188163,2ff58ae664c5643b52cac8f3136a520f,Form,8,0,subj_info,NULL,comment,
1567188163,2ff58ae664c5643b52cac8f3136a520f,Form,8,0,subj_info,NULL,sex,female
1567188163,2ff58ae664c5643b52cac8f3136a520f,Form,8,0,subj_info,NULL,politics,democrat
1567188163,2ff58ae664c5643b52cac8f3136a520f,Form,8,0,subj_info,NULL,_REACTION_TIME_,20019
#
# Results on Friday August 30 2019 18:03:10 UTC.
# USER AGENT: Mozilla/5.0 (Windows NT 10.0; WOW64) AppleWebKit/537.36 (KHTML, like Gecko) Chrome/76.0.3809.87 Safari/537.36
# Design number was non-random = 0
#
# Columns below this comment are as follows:
# 1. Time results were received.
# 2. MD5 hash of participant's IP address.
# 3. Controller name.
# 4. Item number.
# 5. Element number.
# 6. Type.
# 7. Group.
# 8. Field name.
# 9. Field value.
1567188190,6078769eae28b9346fe9df384be7ba39,Form,3,0,consent,NULL,,yes
1567188190,6078769eae28b9346fe9df384be7ba39,Form,3,0,consent,NULL,_REACTION_TIME_,52981
1567188190,6078769eae28b9346fe9df384be7ba39,Form,4,0,instructions,NULL,_REACTION_TIME_,3475
1567188190,6078769eae28b9346fe9df384be7ba39,Form,5,0,story,15,_REACTION_TIME_,15742
# Columns below this comment are as follows:
# 1. Time results were received.
# 2. MD5 hash of participant's IP address.
# 3. Controller name.
# 4. Item number.
# 5. Element number.
# 6. Type.
# 7. Group.
# 8. Question (NULL if none).
# 9. Answer.
# 10. Whether or not answer was correct (NULL if N/A).
# 11. Time taken to answer.
1567188190,6078769eae28b9346fe9df384be7ba39,Question,5,1,story,15,According to Mary%2C what's in the box?,a bomb,1,2549
1567188190,6078769eae28b9346fe9df384be7ba39,Question,5,2,story,15,What was really in the box?,a pillow,0,1309
1567188190,6078769eae28b9346fe9df384be7ba39,Question,5,3,story,15,Was Mary right about that?,no,1,3551
1567188190,6078769eae28b9346fe9df384be7ba39,Question,6,0,politics,NULL,How worried are you about bombs being sent to government officials?,not at all worried,NULL,3367
1567188190,6078769eae28b9346fe9df384be7ba39,Question,7,0,politics,NULL,How worried are you about taxpayer money being wasted?,very worried,NULL,2719
# Columns below this comment are as follows:
# 1. Time results were received.
# 2. MD5 hash of participant's IP address.
# 3. Controller name.
# 4. Item number.
# 5. Element number.
# 6. Type.
# 7. Group.
# 8. Field name.
# 9. Field value.
1567188190,6078769eae28b9346fe9df384be7ba39,Form,8,0,subj_info,NULL,year,1990
1567188190,6078769eae28b9346fe9df384be7ba39,Form,8,0,subj_info,NULL,language,English
1567188190,6078769eae28b9346fe9df384be7ba39,Form,8,0,subj_info,NULL,idturk,A1LDP0JIA4IKAQ
1567188190,6078769eae28b9346fe9df384be7ba39,Form,8,0,subj_info,NULL,comment,
1567188190,6078769eae28b9346fe9df384be7ba39,Form,8,0,subj_info,NULL,sex,male
1567188190,6078769eae28b9346fe9df384be7ba39,Form,8,0,subj_info,NULL,politics,republican
1567188190,6078769eae28b9346fe9df384be7ba39,Form,8,0,subj_info,NULL,_REACTION_TIME_,15439
#
# Results on Friday August 30 2019 18:03:19 UTC.
# USER AGENT: Mozilla/5.0 (Windows NT 10.0; Win64; x64) AppleWebKit/537.36 (KHTML, like Gecko) Chrome/76.0.3809.132 Safari/537.36
# Design number was non-random = 5
#
# Columns below this comment are as follows:
# 1. Time results were received.
# 2. MD5 hash of participant's IP address.
# 3. Controller name.
# 4. Item number.
# 5. Element number.
# 6. Type.
# 7. Group.
# 8. Field name.
# 9. Field value.
1567188200,602aee270108614bf223ccf58bf878dd,Form,3,0,consent,NULL,,yes
1567188200,602aee270108614bf223ccf58bf878dd,Form,3,0,consent,NULL,_REACTION_TIME_,3599
1567188200,602aee270108614bf223ccf58bf878dd,Form,4,0,instructions,NULL,_REACTION_TIME_,1564
1567188200,602aee270108614bf223ccf58bf878dd,Form,5,0,story,15,_REACTION_TIME_,8769
# Columns below this comment are as follows:
# 1. Time results were received.
# 2. MD5 hash of participant's IP address.
# 3. Controller name.
# 4. Item number.
# 5. Element number.
# 6. Type.
# 7. Group.
# 8. Question (NULL if none).
# 9. Answer.
# 10. Whether or not answer was correct (NULL if N/A).
# 11. Time taken to answer.
1567188200,602aee270108614bf223ccf58bf878dd,Question,5,1,story,15,According to Mary%2C what's in the box?,a bomb,1,2969
1567188200,602aee270108614bf223ccf58bf878dd,Question,5,2,story,15,What was really in the box?,a pillow,0,1520
1567188200,602aee270108614bf223ccf58bf878dd,Question,5,3,story,15,Was Mary right about that?,no,1,2395
1567188200,602aee270108614bf223ccf58bf878dd,Question,7,0,politics,NULL,How worried are you about taxpayer money being wasted?,a little worried,NULL,2701
1567188200,602aee270108614bf223ccf58bf878dd,Question,6,0,politics,NULL,How worried are you about bombs being sent to government officials?,a little worried,NULL,654
# Columns below this comment are as follows:
# 1. Time results were received.
# 2. MD5 hash of participant's IP address.
# 3. Controller name.
# 4. Item number.
# 5. Element number.
# 6. Type.
# 7. Group.
# 8. Field name.
# 9. Field value.
1567188200,602aee270108614bf223ccf58bf878dd,Form,8,0,subj_info,NULL,year,1982
1567188200,602aee270108614bf223ccf58bf878dd,Form,8,0,subj_info,NULL,language,english
1567188200,602aee270108614bf223ccf58bf878dd,Form,8,0,subj_info,NULL,idturk,A3774HPOUKYTX7
1567188200,602aee270108614bf223ccf58bf878dd,Form,8,0,subj_info,NULL,comment,
1567188200,602aee270108614bf223ccf58bf878dd,Form,8,0,subj_info,NULL,sex,male
1567188200,602aee270108614bf223ccf58bf878dd,Form,8,0,subj_info,NULL,politics,democrat
1567188200,602aee270108614bf223ccf58bf878dd,Form,8,0,subj_info,NULL,_REACTION_TIME_,13391
#
# Results on Friday August 30 2019 18:03:21 UTC.
# USER AGENT: Mozilla/5.0 (Windows NT 10.0; Win64; x64) AppleWebKit/537.36 (KHTML, like Gecko) Chrome/75.0.3770.142 Safari/537.36 OPR/62.0.3331.116
# Design number was non-random = 2
#
# Columns below this comment are as follows:
# 1. Time results were received.
# 2. MD5 hash of participant's IP address.
# 3. Controller name.
# 4. Item number.
# 5. Element number.
# 6. Type.
# 7. Group.
# 8. Field name.
# 9. Field value.
1567188201,4fcf39eec2d0c5cd326af84319477c60,Form,3,0,consent,NULL,,yes
1567188201,4fcf39eec2d0c5cd326af84319477c60,Form,3,0,consent,NULL,_REACTION_TIME_,4989
1567188201,4fcf39eec2d0c5cd326af84319477c60,Form,4,0,instructions,NULL,_REACTION_TIME_,2324
1567188201,4fcf39eec2d0c5cd326af84319477c60,Form,5,0,story,15,_REACTION_TIME_,21797
# Columns below this comment are as follows:
# 1. Time results were received.
# 2. MD5 hash of participant's IP address.
# 3. Controller name.
# 4. Item number.
# 5. Element number.
# 6. Type.
# 7. Group.
# 8. Question (NULL if none).
# 9. Answer.
# 10. Whether or not answer was correct (NULL if N/A).
# 11. Time taken to answer.
1567188201,4fcf39eec2d0c5cd326af84319477c60,Question,5,1,story,15,According to Mary%2C what's in the box?,a bomb,1,4722
1567188201,4fcf39eec2d0c5cd326af84319477c60,Question,5,2,story,15,What was really in the box?,a pillow,0,1913
1567188201,4fcf39eec2d0c5cd326af84319477c60,Question,5,3,story,15,Was Mary right about that?,no,1,4074
1567188201,4fcf39eec2d0c5cd326af84319477c60,Question,6,0,politics,NULL,How worried are you about bombs being sent to government officials?,not at all worried,NULL,5833
1567188201,4fcf39eec2d0c5cd326af84319477c60,Question,7,0,politics,NULL,How worried are you about taxpayer money being wasted?,very worried,NULL,2848
# Columns below this comment are as follows:
# 1. Time results were received.
# 2. MD5 hash of participant's IP address.
# 3. Controller name.
# 4. Item number.
# 5. Element number.
# 6. Type.
# 7. Group.
# 8. Field name.
# 9. Field value.
1567188201,4fcf39eec2d0c5cd326af84319477c60,Form,8,0,subj_info,NULL,year,1965
1567188201,4fcf39eec2d0c5cd326af84319477c60,Form,8,0,subj_info,NULL,language,english
1567188201,4fcf39eec2d0c5cd326af84319477c60,Form,8,0,subj_info,NULL,idturk,A1Y3IPBBZQTWR2
1567188201,4fcf39eec2d0c5cd326af84319477c60,Form,8,0,subj_info,NULL,comment,
1567188201,4fcf39eec2d0c5cd326af84319477c60,Form,8,0,subj_info,NULL,sex,male
1567188201,4fcf39eec2d0c5cd326af84319477c60,Form,8,0,subj_info,NULL,politics,other
1567188201,4fcf39eec2d0c5cd326af84319477c60,Form,8,0,subj_info,NULL,_REACTION_TIME_,27350
#
# Results on Friday August 30 2019 18:03:33 UTC.
# USER AGENT: Mozilla/5.0 (Windows NT 10.0; Win64; x64) AppleWebKit/537.36 (KHTML, like Gecko) Chrome/64.0.3282.140 Safari/537.36 Edge/18.17763
# Design number was non-random = 3
#
# Columns below this comment are as follows:
# 1. Time results were received.
# 2. MD5 hash of participant's IP address.
# 3. Controller name.
# 4. Item number.
# 5. Element number.
# 6. Type.
# 7. Group.
# 8. Field name.
# 9. Field value.
1567188213,d795c59df89eac5fa7e39838eeabc46b,Form,3,0,consent,NULL,,yes
1567188213,d795c59df89eac5fa7e39838eeabc46b,Form,3,0,consent,NULL,_REACTION_TIME_,3292
1567188213,d795c59df89eac5fa7e39838eeabc46b,Form,4,0,instructions,NULL,_REACTION_TIME_,3372
1567188213,d795c59df89eac5fa7e39838eeabc46b,Form,5,0,story,15,_REACTION_TIME_,15759
# Columns below this comment are as follows:
# 1. Time results were received.
# 2. MD5 hash of participant's IP address.
# 3. Controller name.
# 4. Item number.
# 5. Element number.
# 6. Type.
# 7. Group.
# 8. Question (NULL if none).
# 9. Answer.
# 10. Whether or not answer was correct (NULL if N/A).
# 11. Time taken to answer.
1567188213,d795c59df89eac5fa7e39838eeabc46b,Question,5,1,story,15,According to Mary%2C what's in the box?,a pillow,0,3243
1567188213,d795c59df89eac5fa7e39838eeabc46b,Question,5,2,story,15,What was really in the box?,a pillow,0,1572
1567188213,d795c59df89eac5fa7e39838eeabc46b,Question,5,3,story,15,Was Mary right about that?,no,1,1816
1567188213,d795c59df89eac5fa7e39838eeabc46b,Question,7,0,politics,NULL,How worried are you about taxpayer money being wasted?,a little worried,NULL,2290
1567188213,d795c59df89eac5fa7e39838eeabc46b,Question,6,0,politics,NULL,How worried are you about bombs being sent to government officials?,not at all worried,NULL,3460
# Columns below this comment are as follows:
# 1. Time results were received.
# 2. MD5 hash of participant's IP address.
# 3. Controller name.
# 4. Item number.
# 5. Element number.
# 6. Type.
# 7. Group.
# 8. Field name.
# 9. Field value.
1567188213,d795c59df89eac5fa7e39838eeabc46b,Form,8,0,subj_info,NULL,year,1970
1567188213,d795c59df89eac5fa7e39838eeabc46b,Form,8,0,subj_info,NULL,language,english
1567188213,d795c59df89eac5fa7e39838eeabc46b,Form,8,0,subj_info,NULL,idturk,A356EVHB3TU90R
1567188213,d795c59df89eac5fa7e39838eeabc46b,Form,8,0,subj_info,NULL,comment,
1567188213,d795c59df89eac5fa7e39838eeabc46b,Form,8,0,subj_info,NULL,sex,female
1567188213,d795c59df89eac5fa7e39838eeabc46b,Form,8,0,subj_info,NULL,politics,republican
1567188213,d795c59df89eac5fa7e39838eeabc46b,Form,8,0,subj_info,NULL,_REACTION_TIME_,35992
#
# Results on Friday August 30 2019 18:04:15 UTC.
# USER AGENT: Mozilla/5.0 (Linux; Android 7.1.1; Z557BL) AppleWebKit/537.36 (KHTML, like Gecko) Chrome/76.0.3809.111 Mobile Safari/537.36
# Design number was non-random = 6
#
# Columns below this comment are as follows:
# 1. Time results were received.
# 2. MD5 hash of participant's IP address.
# 3. Controller name.
# 4. Item number.
# 5. Element number.
# 6. Type.
# 7. Group.
# 8. Field name.
# 9. Field value.
1567188256,b03d3d2aaf2e8a0b4c6dd480044ec163,Form,3,0,consent,NULL,,yes
1567188256,b03d3d2aaf2e8a0b4c6dd480044ec163,Form,3,0,consent,NULL,_REACTION_TIME_,5600
1567188256,b03d3d2aaf2e8a0b4c6dd480044ec163,Form,4,0,instructions,NULL,_REACTION_TIME_,4058
1567188256,b03d3d2aaf2e8a0b4c6dd480044ec163,Form,5,0,story,15,_REACTION_TIME_,18700
# Columns below this comment are as follows:
# 1. Time results were received.
# 2. MD5 hash of participant's IP address.
# 3. Controller name.
# 4. Item number.
# 5. Element number.
# 6. Type.
# 7. Group.
# 8. Question (NULL if none).
# 9. Answer.
# 10. Whether or not answer was correct (NULL if N/A).
# 11. Time taken to answer.
1567188256,b03d3d2aaf2e8a0b4c6dd480044ec163,Question,5,1,story,15,According to Mary%2C what's in the box?,a bomb,1,4410
1567188256,b03d3d2aaf2e8a0b4c6dd480044ec163,Question,5,2,story,15,What was really in the box?,a pillow,0,1813
1567188256,b03d3d2aaf2e8a0b4c6dd480044ec163,Question,5,3,story,15,Was Mary right about that?,no,1,3479
1567188256,b03d3d2aaf2e8a0b4c6dd480044ec163,Question,6,0,politics,NULL,How worried are you about bombs being sent to government officials?,not at all worried,NULL,3191
1567188256,b03d3d2aaf2e8a0b4c6dd480044ec163,Question,7,0,politics,NULL,How worried are you about taxpayer money being wasted?,very worried,NULL,2880
# Columns below this comment are as follows:
# 1. Time results were received.
# 2. MD5 hash of participant's IP address.
# 3. Controller name.
# 4. Item number.
# 5. Element number.
# 6. Type.
# 7. Group.
# 8. Field name.
# 9. Field value.
1567188256,b03d3d2aaf2e8a0b4c6dd480044ec163,Form,8,0,subj_info,NULL,year,1984
1567188256,b03d3d2aaf2e8a0b4c6dd480044ec163,Form,8,0,subj_info,NULL,language,English
1567188256,b03d3d2aaf2e8a0b4c6dd480044ec163,Form,8,0,subj_info,NULL,idturk,A3ADQ2RLQNJQDU
1567188256,b03d3d2aaf2e8a0b4c6dd480044ec163,Form,8,0,subj_info,NULL,comment,
1567188256,b03d3d2aaf2e8a0b4c6dd480044ec163,Form,8,0,subj_info,NULL,sex,female
1567188256,b03d3d2aaf2e8a0b4c6dd480044ec163,Form,8,0,subj_info,NULL,politics,democrat
1567188256,b03d3d2aaf2e8a0b4c6dd480044ec163,Form,8,0,subj_info,NULL,_REACTION_TIME_,31668
#
# Results on Friday August 30 2019 18:04:26 UTC.
# USER AGENT: Mozilla/5.0 (Windows NT 10.0; Win64; x64) AppleWebKit/537.36 (KHTML, like Gecko) Chrome/76.0.3809.100 Safari/537.36
# Design number was non-random = 7
#
# Columns below this comment are as follows:
# 1. Time results were received.
# 2. MD5 hash of participant's IP address.
# 3. Controller name.
# 4. Item number.
# 5. Element number.
# 6. Type.
# 7. Group.
# 8. Field name.
# 9. Field value.
1567188266,22725951b0fdec4ce42bbb2645419c35,Form,3,0,consent,NULL,,yes
1567188266,22725951b0fdec4ce42bbb2645419c35,Form,3,0,consent,NULL,_REACTION_TIME_,9896
1567188266,22725951b0fdec4ce42bbb2645419c35,Form,4,0,instructions,NULL,_REACTION_TIME_,1531
1567188266,22725951b0fdec4ce42bbb2645419c35,Form,5,0,story,15,_REACTION_TIME_,18649
# Columns below this comment are as follows:
# 1. Time results were received.
# 2. MD5 hash of participant's IP address.
# 3. Controller name.
# 4. Item number.
# 5. Element number.
# 6. Type.
# 7. Group.
# 8. Question (NULL if none).
# 9. Answer.
# 10. Whether or not answer was correct (NULL if N/A).
# 11. Time taken to answer.
1567188266,22725951b0fdec4ce42bbb2645419c35,Question,5,1,story,15,According to Mary%2C what's in the box?,a bomb,1,3160
1567188266,22725951b0fdec4ce42bbb2645419c35,Question,5,2,story,15,What was really in the box?,a pillow,0,1945
1567188266,22725951b0fdec4ce42bbb2645419c35,Question,5,3,story,15,Was Mary right about that?,no,1,3398
1567188266,22725951b0fdec4ce42bbb2645419c35,Question,6,0,politics,NULL,How worried are you about bombs being sent to government officials?,a little worried,NULL,4552
1567188266,22725951b0fdec4ce42bbb2645419c35,Question,7,0,politics,NULL,How worried are you about taxpayer money being wasted?,very worried,NULL,2912
# Columns below this comment are as follows:
# 1. Time results were received.
# 2. MD5 hash of participant's IP address.
# 3. Controller name.
# 4. Item number.
# 5. Element number.
# 6. Type.
# 7. Group.
# 8. Field name.
# 9. Field value.
1567188266,22725951b0fdec4ce42bbb2645419c35,Form,8,0,subj_info,NULL,year,1965
1567188266,22725951b0fdec4ce42bbb2645419c35,Form,8,0,subj_info,NULL,language,Cantonese
1567188266,22725951b0fdec4ce42bbb2645419c35,Form,8,0,subj_info,NULL,idturk,AEZ8HFKNK24Q3
1567188266,22725951b0fdec4ce42bbb2645419c35,Form,8,0,subj_info,NULL,comment,
1567188266,22725951b0fdec4ce42bbb2645419c35,Form,8,0,subj_info,NULL,sex,female
1567188266,22725951b0fdec4ce42bbb2645419c35,Form,8,0,subj_info,NULL,politics,other
1567188266,22725951b0fdec4ce42bbb2645419c35,Form,8,0,subj_info,NULL,_REACTION_TIME_,22440
#
# Results on Friday August 30 2019 18:04:57 UTC.
# USER AGENT: Mozilla/5.0 (Windows NT 6.1; Win64; x64) AppleWebKit/537.36 (KHTML, like Gecko) Chrome/76.0.3809.132 Safari/537.36
# Design number was non-random = 10
#
# Columns below this comment are as follows:
# 1. Time results were received.
# 2. MD5 hash of participant's IP address.
# 3. Controller name.
# 4. Item number.
# 5. Element number.
# 6. Type.
# 7. Group.
# 8. Field name.
# 9. Field value.
1567188297,152da48d7c507c2b22cdba704ee03c12,Form,3,0,consent,NULL,,yes
1567188297,152da48d7c507c2b22cdba704ee03c12,Form,3,0,consent,NULL,_REACTION_TIME_,3841
1567188297,152da48d7c507c2b22cdba704ee03c12,Form,4,0,instructions,NULL,_REACTION_TIME_,1443
1567188297,152da48d7c507c2b22cdba704ee03c12,Form,5,0,story,15,_REACTION_TIME_,6554
# Columns below this comment are as follows:
# 1. Time results were received.
# 2. MD5 hash of participant's IP address.
# 3. Controller name.
# 4. Item number.
# 5. Element number.
# 6. Type.
# 7. Group.
# 8. Question (NULL if none).
# 9. Answer.
# 10. Whether or not answer was correct (NULL if N/A).
# 11. Time taken to answer.
1567188297,152da48d7c507c2b22cdba704ee03c12,Question,5,1,story,15,According to Mary%2C what's in the box?,a bomb,1,1824
1567188297,152da48d7c507c2b22cdba704ee03c12,Question,5,2,story,15,What was really in the box?,a pillow,0,1865
1567188297,152da48d7c507c2b22cdba704ee03c12,Question,5,3,story,15,Was Mary right about that?,no,1,3074
1567188297,152da48d7c507c2b22cdba704ee03c12,Question,6,0,politics,NULL,How worried are you about bombs being sent to government officials?,a little worried,NULL,5816
1567188297,152da48d7c507c2b22cdba704ee03c12,Question,7,0,politics,NULL,How worried are you about taxpayer money being wasted?,very worried,NULL,3780
# Columns below this comment are as follows:
# 1. Time results were received.
# 2. MD5 hash of participant's IP address.
# 3. Controller name.
# 4. Item number.
# 5. Element number.
# 6. Type.
# 7. Group.
# 8. Field name.
# 9. Field value.
1567188297,152da48d7c507c2b22cdba704ee03c12,Form,8,0,subj_info,NULL,year,1968
1567188297,152da48d7c507c2b22cdba704ee03c12,Form,8,0,subj_info,NULL,language,Chinese
1567188297,152da48d7c507c2b22cdba704ee03c12,Form,8,0,subj_info,NULL,idturk,A1198W1SPF1R4
1567188297,152da48d7c507c2b22cdba704ee03c12,Form,8,0,subj_info,NULL,comment,
1567188297,152da48d7c507c2b22cdba704ee03c12,Form,8,0,subj_info,NULL,sex,female
1567188297,152da48d7c507c2b22cdba704ee03c12,Form,8,0,subj_info,NULL,politics,other
1567188297,152da48d7c507c2b22cdba704ee03c12,Form,8,0,subj_info,NULL,_REACTION_TIME_,31768
#
# Results on Friday August 30 2019 18:05:33 UTC.
# USER AGENT: Mozilla/5.0 (Windows NT 10.0; Win64; x64) AppleWebKit/537.36 (KHTML, like Gecko) Chrome/76.0.3809.132 Safari/537.36
# Design number was non-random = 12
#
# Columns below this comment are as follows:
# 1. Time results were received.
# 2. MD5 hash of participant's IP address.
# 3. Controller name.
# 4. Item number.
# 5. Element number.
# 6. Type.
# 7. Group.
# 8. Field name.
# 9. Field value.
1567188334,9b0cf96894390eee8977aa40bd7e27e5,Form,3,0,consent,NULL,,yes
1567188334,9b0cf96894390eee8977aa40bd7e27e5,Form,3,0,consent,NULL,_REACTION_TIME_,5907
1567188334,9b0cf96894390eee8977aa40bd7e27e5,Form,4,0,instructions,NULL,_REACTION_TIME_,2124
1567188334,9b0cf96894390eee8977aa40bd7e27e5,Form,5,0,story,15,_REACTION_TIME_,15960
# Columns below this comment are as follows:
# 1. Time results were received.
# 2. MD5 hash of participant's IP address.
# 3. Controller name.
# 4. Item number.
# 5. Element number.
# 6. Type.
# 7. Group.
# 8. Question (NULL if none).
# 9. Answer.
# 10. Whether or not answer was correct (NULL if N/A).
# 11. Time taken to answer.
1567188334,9b0cf96894390eee8977aa40bd7e27e5,Question,5,1,story,15,According to Mary%2C what's in the box?,a bomb,1,3342
1567188334,9b0cf96894390eee8977aa40bd7e27e5,Question,5,2,story,15,What was really in the box?,a pillow,0,1140
1567188334,9b0cf96894390eee8977aa40bd7e27e5,Question,5,3,story,15,Was Mary right about that?,no,1,1305
1567188334,9b0cf96894390eee8977aa40bd7e27e5,Question,7,0,politics,NULL,How worried are you about taxpayer money being wasted?,very worried,NULL,4703
1567188334,9b0cf96894390eee8977aa40bd7e27e5,Question,6,0,politics,NULL,How worried are you about bombs being sent to government officials?,a little worried,NULL,2850
# Columns below this comment are as follows:
# 1. Time results were received.
# 2. MD5 hash of participant's IP address.
# 3. Controller name.
# 4. Item number.
# 5. Element number.
# 6. Type.
# 7. Group.
# 8. Field name.
# 9. Field value.
1567188334,9b0cf96894390eee8977aa40bd7e27e5,Form,8,0,subj_info,NULL,year,1982
1567188334,9b0cf96894390eee8977aa40bd7e27e5,Form,8,0,subj_info,NULL,language,English
1567188334,9b0cf96894390eee8977aa40bd7e27e5,Form,8,0,subj_info,NULL,idturk,AT6LDQNLKTUSE
1567188334,9b0cf96894390eee8977aa40bd7e27e5,Form,8,0,subj_info,NULL,comment,
1567188334,9b0cf96894390eee8977aa40bd7e27e5,Form,8,0,subj_info,NULL,sex,male
1567188334,9b0cf96894390eee8977aa40bd7e27e5,Form,8,0,subj_info,NULL,politics,democrat
1567188334,9b0cf96894390eee8977aa40bd7e27e5,Form,8,0,subj_info,NULL,_REACTION_TIME_,20052
#
# Results on Friday August 30 2019 18:05:35 UTC.
# USER AGENT: Mozilla/5.0 (Windows NT 10.0; Win64; x64) AppleWebKit/537.36 (KHTML, like Gecko) Chrome/76.0.3809.132 Safari/537.36
# Design number was non-random = 10
#
# Columns below this comment are as follows:
# 1. Time results were received.
# 2. MD5 hash of participant's IP address.
# 3. Controller name.
# 4. Item number.
# 5. Element number.
# 6. Type.
# 7. Group.
# 8. Field name.
# 9. Field value.
1567188335,ff36d9a34bc72bf4f5183a5d293c5d04,Form,3,0,consent,NULL,,yes
1567188335,ff36d9a34bc72bf4f5183a5d293c5d04,Form,3,0,consent,NULL,_REACTION_TIME_,3179
1567188335,ff36d9a34bc72bf4f5183a5d293c5d04,Form,4,0,instructions,NULL,_REACTION_TIME_,1846
1567188335,ff36d9a34bc72bf4f5183a5d293c5d04,Form,5,0,story,15,_REACTION_TIME_,31097
# Columns below this comment are as follows:
# 1. Time results were received.
# 2. MD5 hash of participant's IP address.
# 3. Controller name.
# 4. Item number.
# 5. Element number.
# 6. Type.
# 7. Group.
# 8. Question (NULL if none).
# 9. Answer.
# 10. Whether or not answer was correct (NULL if N/A).
# 11. Time taken to answer.
1567188335,ff36d9a34bc72bf4f5183a5d293c5d04,Question,5,1,story,15,According to Mary%2C what's in the box?,a bomb,1,3701
1567188335,ff36d9a34bc72bf4f5183a5d293c5d04,Question,5,2,story,15,What was really in the box?,a pillow,0,2654
1567188335,ff36d9a34bc72bf4f5183a5d293c5d04,Question,5,3,story,15,Was Mary right about that?,no,1,2834
1567188335,ff36d9a34bc72bf4f5183a5d293c5d04,Question,7,0,politics,NULL,How worried are you about taxpayer money being wasted?,very worried,NULL,5226
1567188335,ff36d9a34bc72bf4f5183a5d293c5d04,Question,6,0,politics,NULL,How worried are you about bombs being sent to government officials?,a little worried,NULL,4967
# Columns below this comment are as follows:
# 1. Time results were received.
# 2. MD5 hash of participant's IP address.
# 3. Controller name.
# 4. Item number.
# 5. Element number.
# 6. Type.
# 7. Group.
# 8. Field name.
# 9. Field value.
1567188335,ff36d9a34bc72bf4f5183a5d293c5d04,Form,8,0,subj_info,NULL,year,29
1567188335,ff36d9a34bc72bf4f5183a5d293c5d04,Form,8,0,subj_info,NULL,language,english
1567188335,ff36d9a34bc72bf4f5183a5d293c5d04,Form,8,0,subj_info,NULL,idturk,A3MR0WCXLM7RX6
1567188335,ff36d9a34bc72bf4f5183a5d293c5d04,Form,8,0,subj_info,NULL,comment,
1567188335,ff36d9a34bc72bf4f5183a5d293c5d04,Form,8,0,subj_info,NULL,sex,male
1567188335,ff36d9a34bc72bf4f5183a5d293c5d04,Form,8,0,subj_info,NULL,politics,democrat
1567188335,ff36d9a34bc72bf4f5183a5d293c5d04,Form,8,0,subj_info,NULL,_REACTION_TIME_,23372
#
# Results on Friday August 30 2019 18:05:45 UTC.
# USER AGENT: Mozilla/5.0 (Windows NT 10.0; Win64; x64) AppleWebKit/537.36 (KHTML, like Gecko) Chrome/64.0.3282.140 Safari/537.36 Edge/18.17763
# Design number was non-random = 10
#
# Columns below this comment are as follows:
# 1. Time results were received.
# 2. MD5 hash of participant's IP address.
# 3. Controller name.
# 4. Item number.
# 5. Element number.
# 6. Type.
# 7. Group.
# 8. Field name.
# 9. Field value.
1567188345,a0d4e38ef778b1be3082147d78e49c77,Form,3,0,consent,NULL,,yes
1567188345,a0d4e38ef778b1be3082147d78e49c77,Form,3,0,consent,NULL,_REACTION_TIME_,35409
1567188345,a0d4e38ef778b1be3082147d78e49c77,Form,4,0,instructions,NULL,_REACTION_TIME_,3969
1567188345,a0d4e38ef778b1be3082147d78e49c77,Form,5,0,story,15,_REACTION_TIME_,37948
# Columns below this comment are as follows:
# 1. Time results were received.
# 2. MD5 hash of participant's IP address.
# 3. Controller name.
# 4. Item number.
# 5. Element number.
# 6. Type.
# 7. Group.
# 8. Question (NULL if none).
# 9. Answer.
# 10. Whether or not answer was correct (NULL if N/A).
# 11. Time taken to answer.
1567188345,a0d4e38ef778b1be3082147d78e49c77,Question,5,1,story,15,According to Mary%2C what's in the box?,a bomb,1,3915
1567188345,a0d4e38ef778b1be3082147d78e49c77,Question,5,2,story,15,What was really in the box?,a pillow,0,2234
1567188345,a0d4e38ef778b1be3082147d78e49c77,Question,5,3,story,15,Was Mary right about that?,no,1,3789
1567188345,a0d4e38ef778b1be3082147d78e49c77,Question,7,0,politics,NULL,How worried are you about taxpayer money being wasted?,very worried,NULL,5225
1567188345,a0d4e38ef778b1be3082147d78e49c77,Question,6,0,politics,NULL,How worried are you about bombs being sent to government officials?,a little worried,NULL,4853
# Columns below this comment are as follows:
# 1. Time results were received.
# 2. MD5 hash of participant's IP address.
# 3. Controller name.
# 4. Item number.
# 5. Element number.
# 6. Type.
# 7. Group.
# 8. Field name.
# 9. Field value.
1567188345,a0d4e38ef778b1be3082147d78e49c77,Form,8,0,subj_info,NULL,year,1971
1567188345,a0d4e38ef778b1be3082147d78e49c77,Form,8,0,subj_info,NULL,language,English
1567188345,a0d4e38ef778b1be3082147d78e49c77,Form,8,0,subj_info,NULL,idturk,A1EGD98S2MCHV6
1567188345,a0d4e38ef778b1be3082147d78e49c77,Form,8,0,subj_info,NULL,comment,Thank you.
1567188345,a0d4e38ef778b1be3082147d78e49c77,Form,8,0,subj_info,NULL,sex,female
1567188345,a0d4e38ef778b1be3082147d78e49c77,Form,8,0,subj_info,NULL,politics,democrat
1567188345,a0d4e38ef778b1be3082147d78e49c77,Form,8,0,subj_info,NULL,_REACTION_TIME_,28055
#
# Results on Friday August 30 2019 18:07:32 UTC.
# USER AGENT: Mozilla/5.0 (Windows NT 10.0; Win64; x64) AppleWebKit/537.36 (KHTML, like Gecko) Chrome/76.0.3809.132 Safari/537.36
# Design number was non-random = 13
#
# Columns below this comment are as follows:
# 1. Time results were received.
# 2. MD5 hash of participant's IP address.
# 3. Controller name.
# 4. Item number.
# 5. Element number.
# 6. Type.
# 7. Group.
# 8. Field name.
# 9. Field value.
1567188453,acab6a76b822ec9c8c683e5404cdc03f,Form,3,0,consent,NULL,,yes
1567188453,acab6a76b822ec9c8c683e5404cdc03f,Form,3,0,consent,NULL,_REACTION_TIME_,19819
1567188453,acab6a76b822ec9c8c683e5404cdc03f,Form,4,0,instructions,NULL,_REACTION_TIME_,8968
1567188453,acab6a76b822ec9c8c683e5404cdc03f,Form,5,0,story,15,_REACTION_TIME_,36405
# Columns below this comment are as follows:
# 1. Time results were received.
# 2. MD5 hash of participant's IP address.
# 3. Controller name.
# 4. Item number.
# 5. Element number.
# 6. Type.
# 7. Group.
# 8. Question (NULL if none).
# 9. Answer.
# 10. Whether or not answer was correct (NULL if N/A).
# 11. Time taken to answer.
1567188453,acab6a76b822ec9c8c683e5404cdc03f,Question,5,1,story,15,According to Mary%2C what's in the box?,a bomb,1,3919
1567188453,acab6a76b822ec9c8c683e5404cdc03f,Question,5,2,story,15,What was really in the box?,a pillow,0,2160
1567188453,acab6a76b822ec9c8c683e5404cdc03f,Question,5,3,story,15,Was Mary right about that?,no,1,3632
1567188453,acab6a76b822ec9c8c683e5404cdc03f,Question,6,0,politics,NULL,How worried are you about bombs being sent to government officials?,a little worried,NULL,7625
1567188453,acab6a76b822ec9c8c683e5404cdc03f,Question,7,0,politics,NULL,How worried are you about taxpayer money being wasted?,a little worried,NULL,2546
# Columns below this comment are as follows:
# 1. Time results were received.
# 2. MD5 hash of participant's IP address.
# 3. Controller name.
# 4. Item number.
# 5. Element number.
# 6. Type.
# 7. Group.
# 8. Field name.
# 9. Field value.
1567188453,acab6a76b822ec9c8c683e5404cdc03f,Form,8,0,subj_info,NULL,year,1974
1567188453,acab6a76b822ec9c8c683e5404cdc03f,Form,8,0,subj_info,NULL,language,English
1567188453,acab6a76b822ec9c8c683e5404cdc03f,Form,8,0,subj_info,NULL,idturk,A1YW7H9U84E80N
1567188453,acab6a76b822ec9c8c683e5404cdc03f,Form,8,0,subj_info,NULL,comment,Thank you!
1567188453,acab6a76b822ec9c8c683e5404cdc03f,Form,8,0,subj_info,NULL,sex,male
1567188453,acab6a76b822ec9c8c683e5404cdc03f,Form,8,0,subj_info,NULL,politics,democrat
1567188453,acab6a76b822ec9c8c683e5404cdc03f,Form,8,0,subj_info,NULL,_REACTION_TIME_,33831
#
# Results on Friday August 30 2019 18:08:05 UTC.
# USER AGENT: Mozilla/5.0 (Macintosh; Intel Mac OS X 10.14; rv:68.0) Gecko/20100101 Firefox/68.0
# Design number was non-random = 16
#
# Columns below this comment are as follows:
# 1. Time results were received.
# 2. MD5 hash of participant's IP address.
# 3. Controller name.
# 4. Item number.
# 5. Element number.
# 6. Type.
# 7. Group.
# 8. Field name.
# 9. Field value.
1567188486,5827ce628dc5af863a240071f6e608aa,Form,3,0,consent,NULL,,yes
1567188486,5827ce628dc5af863a240071f6e608aa,Form,3,0,consent,NULL,_REACTION_TIME_,12566
1567188486,5827ce628dc5af863a240071f6e608aa,Form,4,0,instructions,NULL,_REACTION_TIME_,4417
1567188486,5827ce628dc5af863a240071f6e608aa,Form,5,0,story,15,_REACTION_TIME_,26927
# Columns below this comment are as follows:
# 1. Time results were received.
# 2. MD5 hash of participant's IP address.
# 3. Controller name.
# 4. Item number.
# 5. Element number.
# 6. Type.
# 7. Group.
# 8. Question (NULL if none).
# 9. Answer.
# 10. Whether or not answer was correct (NULL if N/A).
# 11. Time taken to answer.
1567188486,5827ce628dc5af863a240071f6e608aa,Question,5,1,story,15,According to Mary%2C what's in the box?,a bomb,1,4402
1567188486,5827ce628dc5af863a240071f6e608aa,Question,5,2,story,15,What was really in the box?,a pillow,0,2797
1567188486,5827ce628dc5af863a240071f6e608aa,Question,5,3,story,15,Was Mary right about that?,no,1,3475
1567188486,5827ce628dc5af863a240071f6e608aa,Question,6,0,politics,NULL,How worried are you about bombs being sent to government officials?,a little worried,NULL,6993
1567188486,5827ce628dc5af863a240071f6e608aa,Question,7,0,politics,NULL,How worried are you about taxpayer money being wasted?,very worried,NULL,7265
# Columns below this comment are as follows:
# 1. Time results were received.
# 2. MD5 hash of participant's IP address.
# 3. Controller name.
# 4. Item number.
# 5. Element number.
# 6. Type.
# 7. Group.
# 8. Field name.
# 9. Field value.
1567188486,5827ce628dc5af863a240071f6e608aa,Form,8,0,subj_info,NULL,year,1966
1567188486,5827ce628dc5af863a240071f6e608aa,Form,8,0,subj_info,NULL,language,English
1567188486,5827ce628dc5af863a240071f6e608aa,Form,8,0,subj_info,NULL,idturk,A27AK750Y9M9KH
1567188486,5827ce628dc5af863a240071f6e608aa,Form,8,0,subj_info,NULL,comment,
1567188486,5827ce628dc5af863a240071f6e608aa,Form,8,0,subj_info,NULL,sex,male
1567188486,5827ce628dc5af863a240071f6e608aa,Form,8,0,subj_info,NULL,politics,republican
1567188486,5827ce628dc5af863a240071f6e608aa,Form,8,0,subj_info,NULL,_REACTION_TIME_,28011
#
# Results on Friday August 30 2019 18:08:29 UTC.
# USER AGENT: Mozilla/5.0 (Macintosh; Intel Mac OS X 10_14_6) AppleWebKit/537.36 (KHTML, like Gecko) Chrome/76.0.3809.100 Safari/537.36
# Design number was non-random = 17
#
# Columns below this comment are as follows:
# 1. Time results were received.
# 2. MD5 hash of participant's IP address.
# 3. Controller name.
# 4. Item number.
# 5. Element number.
# 6. Type.
# 7. Group.
# 8. Field name.
# 9. Field value.
1567188509,0c18a027143dd9712b96546273cfd4d3,Form,3,0,consent,NULL,,yes
1567188509,0c18a027143dd9712b96546273cfd4d3,Form,3,0,consent,NULL,_REACTION_TIME_,4248
1567188509,0c18a027143dd9712b96546273cfd4d3,Form,4,0,instructions,NULL,_REACTION_TIME_,1513
1567188509,0c18a027143dd9712b96546273cfd4d3,Form,5,0,story,15,_REACTION_TIME_,1809
# Columns below this comment are as follows:
# 1. Time results were received.
# 2. MD5 hash of participant's IP address.
# 3. Controller name.
# 4. Item number.
# 5. Element number.
# 6. Type.
# 7. Group.
# 8. Question (NULL if none).
# 9. Answer.
# 10. Whether or not answer was correct (NULL if N/A).
# 11. Time taken to answer.
1567188509,0c18a027143dd9712b96546273cfd4d3,Question,5,1,story,15,According to Mary%2C what's in the box?,a bomb,1,2635
1567188509,0c18a027143dd9712b96546273cfd4d3,Question,5,2,story,15,What was really in the box?,a pillow,0,1894
1567188509,0c18a027143dd9712b96546273cfd4d3,Question,5,3,story,15,Was Mary right about that?,yes,0,1455
1567188509,0c18a027143dd9712b96546273cfd4d3,Question,6,0,politics,NULL,How worried are you about bombs being sent to government officials?,very worried,NULL,1307
1567188509,0c18a027143dd9712b96546273cfd4d3,Question,7,0,politics,NULL,How worried are you about taxpayer money being wasted?,very worried,NULL,656
# Columns below this comment are as follows:
# 1. Time results were received.
# 2. MD5 hash of participant's IP address.
# 3. Controller name.
# 4. Item number.
# 5. Element number.
# 6. Type.
# 7. Group.
# 8. Field name.
# 9. Field value.
1567188509,0c18a027143dd9712b96546273cfd4d3,Form,8,0,subj_info,NULL,year,1990
1567188509,0c18a027143dd9712b96546273cfd4d3,Form,8,0,subj_info,NULL,language,english
1567188509,0c18a027143dd9712b96546273cfd4d3,Form,8,0,subj_info,NULL,idturk,AYORSXCD0B544
1567188509,0c18a027143dd9712b96546273cfd4d3,Form,8,0,subj_info,NULL,comment,
1567188509,0c18a027143dd9712b96546273cfd4d3,Form,8,0,subj_info,NULL,sex,male
1567188509,0c18a027143dd9712b96546273cfd4d3,Form,8,0,subj_info,NULL,politics,democrat
1567188509,0c18a027143dd9712b96546273cfd4d3,Form,8,0,subj_info,NULL,_REACTION_TIME_,19238
#
# Results on Friday August 30 2019 18:08:36 UTC.
# USER AGENT: Mozilla/5.0 (Windows NT 6.3; Win64; x64; rv:68.0) Gecko/20100101 Firefox/68.0
# Design number was non-random = 16
#
# Columns below this comment are as follows:
# 1. Time results were received.
# 2. MD5 hash of participant's IP address.
# 3. Controller name.
# 4. Item number.
# 5. Element number.
# 6. Type.
# 7. Group.
# 8. Field name.
# 9. Field value.
1567188517,556c5f5be69b61c860524a70da305b44,Form,3,0,consent,NULL,,yes
1567188517,556c5f5be69b61c860524a70da305b44,Form,3,0,consent,NULL,_REACTION_TIME_,8703
1567188517,556c5f5be69b61c860524a70da305b44,Form,4,0,instructions,NULL,_REACTION_TIME_,4052
1567188517,556c5f5be69b61c860524a70da305b44,Form,5,0,story,15,_REACTION_TIME_,31627
# Columns below this comment are as follows:
# 1. Time results were received.
# 2. MD5 hash of participant's IP address.
# 3. Controller name.
# 4. Item number.
# 5. Element number.
# 6. Type.
# 7. Group.
# 8. Question (NULL if none).
# 9. Answer.
# 10. Whether or not answer was correct (NULL if N/A).
# 11. Time taken to answer.
1567188517,556c5f5be69b61c860524a70da305b44,Question,5,1,story,15,According to Mary%2C what's in the box?,a bomb,1,2683
1567188517,556c5f5be69b61c860524a70da305b44,Question,5,2,story,15,What was really in the box?,a pillow,0,1929
1567188517,556c5f5be69b61c860524a70da305b44,Question,5,3,story,15,Was Mary right about that?,no,1,2830
1567188517,556c5f5be69b61c860524a70da305b44,Question,6,0,politics,NULL,How worried are you about bombs being sent to government officials?,not at all worried,NULL,4390
1567188517,556c5f5be69b61c860524a70da305b44,Question,7,0,politics,NULL,How worried are you about taxpayer money being wasted?,not at all worried,NULL,6094
# Columns below this comment are as follows:
# 1. Time results were received.
# 2. MD5 hash of participant's IP address.
# 3. Controller name.
# 4. Item number.
# 5. Element number.
# 6. Type.
# 7. Group.
# 8. Field name.
# 9. Field value.
1567188517,556c5f5be69b61c860524a70da305b44,Form,8,0,subj_info,NULL,year,1959
1567188517,556c5f5be69b61c860524a70da305b44,Form,8,0,subj_info,NULL,language,German
1567188517,556c5f5be69b61c860524a70da305b44,Form,8,0,subj_info,NULL,idturk,A1DDY2N2OYOL2V
1567188517,556c5f5be69b61c860524a70da305b44,Form,8,0,subj_info,NULL,comment,none
1567188517,556c5f5be69b61c860524a70da305b44,Form,8,0,subj_info,NULL,sex,male
1567188517,556c5f5be69b61c860524a70da305b44,Form,8,0,subj_info,NULL,politics,other
1567188517,556c5f5be69b61c860524a70da305b44,Form,8,0,subj_info,NULL,_REACTION_TIME_,36438
#
# Results on Friday August 30 2019 18:08:45 UTC.
# USER AGENT: Mozilla/5.0 (Windows NT 10.0; Win64; x64) AppleWebKit/537.36 (KHTML, like Gecko) Chrome/76.0.3809.132 Safari/537.36
# Design number was non-random = 16
#
# Columns below this comment are as follows:
# 1. Time results were received.
# 2. MD5 hash of participant's IP address.
# 3. Controller name.
# 4. Item number.
# 5. Element number.
# 6. Type.
# 7. Group.
# 8. Field name.
# 9. Field value.
1567188526,180ea4a00f6eb4e910d00332382e33ec,Form,3,0,consent,NULL,,yes
1567188526,180ea4a00f6eb4e910d00332382e33ec,Form,3,0,consent,NULL,_REACTION_TIME_,11059
1567188526,180ea4a00f6eb4e910d00332382e33ec,Form,4,0,instructions,NULL,_REACTION_TIME_,4299
1567188526,180ea4a00f6eb4e910d00332382e33ec,Form,5,0,story,15,_REACTION_TIME_,20675
# Columns below this comment are as follows:
# 1. Time results were received.
# 2. MD5 hash of participant's IP address.
# 3. Controller name.
# 4. Item number.
# 5. Element number.
# 6. Type.
# 7. Group.
# 8. Question (NULL if none).
# 9. Answer.
# 10. Whether or not answer was correct (NULL if N/A).
# 11. Time taken to answer.
1567188526,180ea4a00f6eb4e910d00332382e33ec,Question,5,1,story,15,According to Mary%2C what's in the box?,a bomb,1,6491
1567188526,180ea4a00f6eb4e910d00332382e33ec,Question,5,2,story,15,What was really in the box?,a pillow,0,1983
1567188526,180ea4a00f6eb4e910d00332382e33ec,Question,5,3,story,15,Was Mary right about that?,no,1,3375
1567188526,180ea4a00f6eb4e910d00332382e33ec,Question,6,0,politics,NULL,How worried are you about bombs being sent to government officials?,not at all worried,NULL,6062
1567188526,180ea4a00f6eb4e910d00332382e33ec,Question,7,0,politics,NULL,How worried are you about taxpayer money being wasted?,not at all worried,NULL,3672
# Columns below this comment are as follows:
# 1. Time results were received.
# 2. MD5 hash of participant's IP address.
# 3. Controller name.
# 4. Item number.
# 5. Element number.
# 6. Type.
# 7. Group.
# 8. Field name.
# 9. Field value.
1567188526,180ea4a00f6eb4e910d00332382e33ec,Form,8,0,subj_info,NULL,year,1950
1567188526,180ea4a00f6eb4e910d00332382e33ec,Form,8,0,subj_info,NULL,language,English
1567188526,180ea4a00f6eb4e910d00332382e33ec,Form,8,0,subj_info,NULL,idturk,A2PRF5G21RC5G3
1567188526,180ea4a00f6eb4e910d00332382e33ec,Form,8,0,subj_info,NULL,comment,
1567188526,180ea4a00f6eb4e910d00332382e33ec,Form,8,0,subj_info,NULL,sex,male
1567188526,180ea4a00f6eb4e910d00332382e33ec,Form,8,0,subj_info,NULL,politics,democrat
1567188526,180ea4a00f6eb4e910d00332382e33ec,Form,8,0,subj_info,NULL,_REACTION_TIME_,24818
#
# Results on Friday August 30 2019 18:09:33 UTC.
# USER AGENT: Mozilla/5.0 (X11; Ubuntu; Linux x86_64; rv:68.0) Gecko/20100101 Firefox/68.0
# Design number was non-random = 18
#
# Columns below this comment are as follows:
# 1. Time results were received.
# 2. MD5 hash of participant's IP address.
# 3. Controller name.
# 4. Item number.
# 5. Element number.
# 6. Type.
# 7. Group.
# 8. Field name.
# 9. Field value.
1567188573,1e4c3e513086b5ba26a38303020d42d5,Form,3,0,consent,NULL,,yes
1567188573,1e4c3e513086b5ba26a38303020d42d5,Form,3,0,consent,NULL,_REACTION_TIME_,6165
1567188573,1e4c3e513086b5ba26a38303020d42d5,Form,4,0,instructions,NULL,_REACTION_TIME_,2803
1567188573,1e4c3e513086b5ba26a38303020d42d5,Form,5,0,story,15,_REACTION_TIME_,25203
# Columns below this comment are as follows:
# 1. Time results were received.
# 2. MD5 hash of participant's IP address.
# 3. Controller name.
# 4. Item number.
# 5. Element number.
# 6. Type.
# 7. Group.
# 8. Question (NULL if none).
# 9. Answer.
# 10. Whether or not answer was correct (NULL if N/A).
# 11. Time taken to answer.
1567188573,1e4c3e513086b5ba26a38303020d42d5,Question,5,1,story,15,According to Mary%2C what's in the box?,a pillow,0,4006
1567188573,1e4c3e513086b5ba26a38303020d42d5,Question,5,2,story,15,What was really in the box?,a pillow,0,4401
1567188573,1e4c3e513086b5ba26a38303020d42d5,Question,5,3,story,15,Was Mary right about that?,yes,0,2308
1567188573,1e4c3e513086b5ba26a38303020d42d5,Question,6,0,politics,NULL,How worried are you about bombs being sent to government officials?,very worried,NULL,3832
1567188573,1e4c3e513086b5ba26a38303020d42d5,Question,7,0,politics,NULL,How worried are you about taxpayer money being wasted?,very worried,NULL,1791
# Columns below this comment are as follows:
# 1. Time results were received.
# 2. MD5 hash of participant's IP address.
# 3. Controller name.
# 4. Item number.
# 5. Element number.
# 6. Type.
# 7. Group.
# 8. Field name.
# 9. Field value.
1567188573,1e4c3e513086b5ba26a38303020d42d5,Form,8,0,subj_info,NULL,year,1985
1567188573,1e4c3e513086b5ba26a38303020d42d5,Form,8,0,subj_info,NULL,language,English
1567188573,1e4c3e513086b5ba26a38303020d42d5,Form,8,0,subj_info,NULL,idturk,A2ZQCHONMAJZF
1567188573,1e4c3e513086b5ba26a38303020d42d5,Form,8,0,subj_info,NULL,comment,
1567188573,1e4c3e513086b5ba26a38303020d42d5,Form,8,0,subj_info,NULL,sex,female
1567188573,1e4c3e513086b5ba26a38303020d42d5,Form,8,0,subj_info,NULL,politics,democrat
1567188573,1e4c3e513086b5ba26a38303020d42d5,Form,8,0,subj_info,NULL,_REACTION_TIME_,15090
#
# Results on Friday August 30 2019 18:10:55 UTC.
# USER AGENT: Mozilla/5.0 (Windows NT 10.0; Win64; x64) AppleWebKit/537.36 (KHTML, like Gecko) Chrome/76.0.3809.132 Safari/537.36
# Design number was non-random = 22
#
# Columns below this comment are as follows:
# 1. Time results were received.
# 2. MD5 hash of participant's IP address.
# 3. Controller name.
# 4. Item number.
# 5. Element number.
# 6. Type.
# 7. Group.
# 8. Field name.
# 9. Field value.
1567188656,d2c40ce943a8f304701761900c744b88,Form,3,0,consent,NULL,,yes
1567188656,d2c40ce943a8f304701761900c744b88,Form,3,0,consent,NULL,_REACTION_TIME_,10665
1567188656,d2c40ce943a8f304701761900c744b88,Form,4,0,instructions,NULL,_REACTION_TIME_,2798
1567188656,d2c40ce943a8f304701761900c744b88,Form,5,0,story,15,_REACTION_TIME_,28298
# Columns below this comment are as follows:
# 1. Time results were received.
# 2. MD5 hash of participant's IP address.
# 3. Controller name.
# 4. Item number.
# 5. Element number.
# 6. Type.
# 7. Group.
# 8. Question (NULL if none).
# 9. Answer.
# 10. Whether or not answer was correct (NULL if N/A).
# 11. Time taken to answer.
1567188656,d2c40ce943a8f304701761900c744b88,Question,5,1,story,15,According to Mary%2C what's in the box?,a bomb,1,3752
1567188656,d2c40ce943a8f304701761900c744b88,Question,5,2,story,15,What was really in the box?,a pillow,0,2117
1567188656,d2c40ce943a8f304701761900c744b88,Question,5,3,story,15,Was Mary right about that?,no,1,3138
1567188656,d2c40ce943a8f304701761900c744b88,Question,6,0,politics,NULL,How worried are you about bombs being sent to government officials?,not at all worried,NULL,6697
1567188656,d2c40ce943a8f304701761900c744b88,Question,7,0,politics,NULL,How worried are you about taxpayer money being wasted?,a little worried,NULL,5184
# Columns below this comment are as follows:
# 1. Time results were received.
# 2. MD5 hash of participant's IP address.
# 3. Controller name.
# 4. Item number.
# 5. Element number.
# 6. Type.
# 7. Group.
# 8. Field name.
# 9. Field value.
1567188656,d2c40ce943a8f304701761900c744b88,Form,8,0,subj_info,NULL,year,1977
1567188656,d2c40ce943a8f304701761900c744b88,Form,8,0,subj_info,NULL,language,Italian
1567188656,d2c40ce943a8f304701761900c744b88,Form,8,0,subj_info,NULL,idturk,A2MX5YW3DSQ61W
1567188656,d2c40ce943a8f304701761900c744b88,Form,8,0,subj_info,NULL,comment,
1567188656,d2c40ce943a8f304701761900c744b88,Form,8,0,subj_info,NULL,sex,female
1567188656,d2c40ce943a8f304701761900c744b88,Form,8,0,subj_info,NULL,politics,democrat
1567188656,d2c40ce943a8f304701761900c744b88,Form,8,0,subj_info,NULL,_REACTION_TIME_,16490
#
# Results on Friday August 30 2019 18:11:56 UTC.
# USER AGENT: Mozilla/5.0 (Macintosh; Intel Mac OS X 10_12_6) AppleWebKit/537.36 (KHTML, like Gecko) Chrome/76.0.3809.100 Safari/537.36
# Design number was non-random = 22
#
# Columns below this comment are as follows:
# 1. Time results were received.
# 2. MD5 hash of participant's IP address.
# 3. Controller name.
# 4. Item number.
# 5. Element number.
# 6. Type.
# 7. Group.
# 8. Field name.
# 9. Field value.
1567188717,4d4b0d435c2de3dd11496d2863594bfc,Form,3,0,consent,NULL,,yes
1567188717,4d4b0d435c2de3dd11496d2863594bfc,Form,3,0,consent,NULL,_REACTION_TIME_,4638
1567188717,4d4b0d435c2de3dd11496d2863594bfc,Form,4,0,instructions,NULL,_REACTION_TIME_,3992
1567188717,4d4b0d435c2de3dd11496d2863594bfc,Form,5,0,story,15,_REACTION_TIME_,38939
# Columns below this comment are as follows:
# 1. Time results were received.
# 2. MD5 hash of participant's IP address.
# 3. Controller name.
# 4. Item number.
# 5. Element number.
# 6. Type.
# 7. Group.
# 8. Question (NULL if none).
# 9. Answer.
# 10. Whether or not answer was correct (NULL if N/A).
# 11. Time taken to answer.
1567188717,4d4b0d435c2de3dd11496d2863594bfc,Question,5,1,story,15,According to Mary%2C what's in the box?,a bomb,1,3098
1567188717,4d4b0d435c2de3dd11496d2863594bfc,Question,5,2,story,15,What was really in the box?,a pillow,0,1603
1567188717,4d4b0d435c2de3dd11496d2863594bfc,Question,5,3,story,15,Was Mary right about that?,no,1,2733
1567188717,4d4b0d435c2de3dd11496d2863594bfc,Question,6,0,politics,NULL,How worried are you about bombs being sent to government officials?,not at all worried,NULL,3845
1567188717,4d4b0d435c2de3dd11496d2863594bfc,Question,7,0,politics,NULL,How worried are you about taxpayer money being wasted?,not at all worried,NULL,3125
# Columns below this comment are as follows:
# 1. Time results were received.
# 2. MD5 hash of participant's IP address.
# 3. Controller name.
# 4. Item number.
# 5. Element number.
# 6. Type.
# 7. Group.
# 8. Field name.
# 9. Field value.
1567188717,4d4b0d435c2de3dd11496d2863594bfc,Form,8,0,subj_info,NULL,year,1989
1567188717,4d4b0d435c2de3dd11496d2863594bfc,Form,8,0,subj_info,NULL,language,english
1567188717,4d4b0d435c2de3dd11496d2863594bfc,Form,8,0,subj_info,NULL,idturk,A1N1MICSJCDFAI
1567188717,4d4b0d435c2de3dd11496d2863594bfc,Form,8,0,subj_info,NULL,comment,
1567188717,4d4b0d435c2de3dd11496d2863594bfc,Form,8,0,subj_info,NULL,sex,female
1567188717,4d4b0d435c2de3dd11496d2863594bfc,Form,8,0,subj_info,NULL,politics,republican
1567188717,4d4b0d435c2de3dd11496d2863594bfc,Form,8,0,subj_info,NULL,_REACTION_TIME_,25557
#
# Results on Friday August 30 2019 18:12:44 UTC.
# USER AGENT: Mozilla/5.0 (Windows NT 10.0; Win64; x64) AppleWebKit/537.36 (KHTML, like Gecko) Chrome/76.0.3809.132 Safari/537.36
# Design number was non-random = 23
#
# Columns below this comment are as follows:
# 1. Time results were received.
# 2. MD5 hash of participant's IP address.
# 3. Controller name.
# 4. Item number.
# 5. Element number.
# 6. Type.
# 7. Group.
# 8. Field name.
# 9. Field value.
1567188765,bd48994e035d72b0c82f65dbbe093949,Form,3,0,consent,NULL,,yes
1567188765,bd48994e035d72b0c82f65dbbe093949,Form,3,0,consent,NULL,_REACTION_TIME_,17788
1567188765,bd48994e035d72b0c82f65dbbe093949,Form,4,0,instructions,NULL,_REACTION_TIME_,2591
1567188765,bd48994e035d72b0c82f65dbbe093949,Form,5,0,story,15,_REACTION_TIME_,26921
# Columns below this comment are as follows:
# 1. Time results were received.
# 2. MD5 hash of participant's IP address.
# 3. Controller name.
# 4. Item number.
# 5. Element number.
# 6. Type.
# 7. Group.
# 8. Question (NULL if none).
# 9. Answer.
# 10. Whether or not answer was correct (NULL if N/A).
# 11. Time taken to answer.
1567188765,bd48994e035d72b0c82f65dbbe093949,Question,5,1,story,15,According to Mary%2C what's in the box?,a bomb,1,4041
1567188765,bd48994e035d72b0c82f65dbbe093949,Question,5,2,story,15,What was really in the box?,a pillow,0,2790
1567188765,bd48994e035d72b0c82f65dbbe093949,Question,5,3,story,15,Was Mary right about that?,no,1,2657
1567188765,bd48994e035d72b0c82f65dbbe093949,Question,6,0,politics,NULL,How worried are you about bombs being sent to government officials?,a little worried,NULL,4097
1567188765,bd48994e035d72b0c82f65dbbe093949,Question,7,0,politics,NULL,How worried are you about taxpayer money being wasted?,very worried,NULL,3212
# Columns below this comment are as follows:
# 1. Time results were received.
# 2. MD5 hash of participant's IP address.
# 3. Controller name.
# 4. Item number.
# 5. Element number.
# 6. Type.
# 7. Group.
# 8. Field name.
# 9. Field value.
1567188765,bd48994e035d72b0c82f65dbbe093949,Form,8,0,subj_info,NULL,year,1946
1567188765,bd48994e035d72b0c82f65dbbe093949,Form,8,0,subj_info,NULL,language,Dutch
1567188765,bd48994e035d72b0c82f65dbbe093949,Form,8,0,subj_info,NULL,idturk,A24W1M0GILRCJ3
1567188765,bd48994e035d72b0c82f65dbbe093949,Form,8,0,subj_info,NULL,comment,
1567188765,bd48994e035d72b0c82f65dbbe093949,Form,8,0,subj_info,NULL,sex,male
1567188765,bd48994e035d72b0c82f65dbbe093949,Form,8,0,subj_info,NULL,politics,republican
1567188765,bd48994e035d72b0c82f65dbbe093949,Form,8,0,subj_info,NULL,_REACTION_TIME_,28622
#
# Results on Friday August 30 2019 18:13:04 UTC.
# USER AGENT: Mozilla/5.0 (Windows NT 10.0; Win64; x64) AppleWebKit/537.36 (KHTML, like Gecko) Chrome/76.0.3809.100 Safari/537.36
# Design number was non-random = 23
#
# Columns below this comment are as follows:
# 1. Time results were received.
# 2. MD5 hash of participant's IP address.
# 3. Controller name.
# 4. Item number.
# 5. Element number.
# 6. Type.
# 7. Group.
# 8. Field name.
# 9. Field value.
1567188784,ac6acf0c42ca6361ad0de6aa7b0a4915,Form,3,0,consent,NULL,,yes
1567188784,ac6acf0c42ca6361ad0de6aa7b0a4915,Form,3,0,consent,NULL,_REACTION_TIME_,9587
1567188784,ac6acf0c42ca6361ad0de6aa7b0a4915,Form,4,0,instructions,NULL,_REACTION_TIME_,5714
1567188784,ac6acf0c42ca6361ad0de6aa7b0a4915,Form,5,0,story,15,_REACTION_TIME_,28344
# Columns below this comment are as follows:
# 1. Time results were received.
# 2. MD5 hash of participant's IP address.
# 3. Controller name.
# 4. Item number.
# 5. Element number.
# 6. Type.
# 7. Group.
# 8. Question (NULL if none).
# 9. Answer.
# 10. Whether or not answer was correct (NULL if N/A).
# 11. Time taken to answer.
1567188784,ac6acf0c42ca6361ad0de6aa7b0a4915,Question,5,1,story,15,According to Mary%2C what's in the box?,a bomb,1,3530
1567188784,ac6acf0c42ca6361ad0de6aa7b0a4915,Question,5,2,story,15,What was really in the box?,a pillow,0,2048
1567188784,ac6acf0c42ca6361ad0de6aa7b0a4915,Question,5,3,story,15,Was Mary right about that?,no,1,3452
1567188784,ac6acf0c42ca6361ad0de6aa7b0a4915,Question,6,0,politics,NULL,How worried are you about bombs being sent to government officials?,not at all worried,NULL,6606
1567188784,ac6acf0c42ca6361ad0de6aa7b0a4915,Question,7,0,politics,NULL,How worried are you about taxpayer money being wasted?,very worried,NULL,6559
# Columns below this comment are as follows:
# 1. Time results were received.
# 2. MD5 hash of participant's IP address.
# 3. Controller name.
# 4. Item number.
# 5. Element number.
# 6. Type.
# 7. Group.
# 8. Field name.
# 9. Field value.
1567188784,ac6acf0c42ca6361ad0de6aa7b0a4915,Form,8,0,subj_info,NULL,year,1971
1567188784,ac6acf0c42ca6361ad0de6aa7b0a4915,Form,8,0,subj_info,NULL,language,english
1567188784,ac6acf0c42ca6361ad0de6aa7b0a4915,Form,8,0,subj_info,NULL,idturk,A1F5E941TP0UIZ
1567188784,ac6acf0c42ca6361ad0de6aa7b0a4915,Form,8,0,subj_info,NULL,comment,
1567188784,ac6acf0c42ca6361ad0de6aa7b0a4915,Form,8,0,subj_info,NULL,sex,female
1567188784,ac6acf0c42ca6361ad0de6aa7b0a4915,Form,8,0,subj_info,NULL,politics,republican
1567188784,ac6acf0c42ca6361ad0de6aa7b0a4915,Form,8,0,subj_info,NULL,_REACTION_TIME_,20146
#
# Results on Friday August 30 2019 18:14:36 UTC.
# USER AGENT: Mozilla/5.0 (iPhone; CPU iPhone OS 12_4 like Mac OS X) AppleWebKit/605.1.15 (KHTML, like Gecko) Version/12.1.2 Mobile/15E148 Safari/604.1
# Design number was non-random = 24
#
# Columns below this comment are as follows:
# 1. Time results were received.
# 2. MD5 hash of participant's IP address.
# 3. Controller name.
# 4. Item number.
# 5. Element number.
# 6. Type.
# 7. Group.
# 8. Field name.
# 9. Field value.
1567188877,356b4dcf543211d9d1399d4dfaf4de62,Form,3,0,consent,NULL,,yes
1567188877,356b4dcf543211d9d1399d4dfaf4de62,Form,3,0,consent,NULL,_REACTION_TIME_,25578
1567188877,356b4dcf543211d9d1399d4dfaf4de62,Form,4,0,instructions,NULL,_REACTION_TIME_,4748
1567188877,356b4dcf543211d9d1399d4dfaf4de62,Form,5,0,story,15,_REACTION_TIME_,21621
# Columns below this comment are as follows:
# 1. Time results were received.
# 2. MD5 hash of participant's IP address.
# 3. Controller name.
# 4. Item number.
# 5. Element number.
# 6. Type.
# 7. Group.
# 8. Question (NULL if none).
# 9. Answer.
# 10. Whether or not answer was correct (NULL if N/A).
# 11. Time taken to answer.
1567188877,356b4dcf543211d9d1399d4dfaf4de62,Question,5,1,story,15,According to Mary%2C what's in the box?,a bomb,1,4011
1567188877,356b4dcf543211d9d1399d4dfaf4de62,Question,5,2,story,15,What was really in the box?,a pillow,0,2180
1567188877,356b4dcf543211d9d1399d4dfaf4de62,Question,5,3,story,15,Was Mary right about that?,no,1,2608
1567188877,356b4dcf543211d9d1399d4dfaf4de62,Question,7,0,politics,NULL,How worried are you about taxpayer money being wasted?,a little worried,NULL,6152
1567188877,356b4dcf543211d9d1399d4dfaf4de62,Question,6,0,politics,NULL,How worried are you about bombs being sent to government officials?,a little worried,NULL,4666
# Columns below this comment are as follows:
# 1. Time results were received.
# 2. MD5 hash of participant's IP address.
# 3. Controller name.
# 4. Item number.
# 5. Element number.
# 6. Type.
# 7. Group.
# 8. Field name.
# 9. Field value.
1567188877,356b4dcf543211d9d1399d4dfaf4de62,Form,8,0,subj_info,NULL,year,1986
1567188877,356b4dcf543211d9d1399d4dfaf4de62,Form,8,0,subj_info,NULL,language,English
1567188877,356b4dcf543211d9d1399d4dfaf4de62,Form,8,0,subj_info,NULL,idturk,A35AF1ZD5HCITK
1567188877,356b4dcf543211d9d1399d4dfaf4de62,Form,8,0,subj_info,NULL,comment,
1567188877,356b4dcf543211d9d1399d4dfaf4de62,Form,8,0,subj_info,NULL,sex,female
1567188877,356b4dcf543211d9d1399d4dfaf4de62,Form,8,0,subj_info,NULL,politics,other
1567188877,356b4dcf543211d9d1399d4dfaf4de62,Form,8,0,subj_info,NULL,_REACTION_TIME_,43639
#
# Results on Friday August 30 2019 18:15:22 UTC.
# USER AGENT: Mozilla/5.0 (Windows NT 10.0; Win64; x64) AppleWebKit/537.36 (KHTML, like Gecko) Chrome/76.0.3809.132 Safari/537.36
# Design number was non-random = 26
#
# Columns below this comment are as follows:
# 1. Time results were received.
# 2. MD5 hash of participant's IP address.
# 3. Controller name.
# 4. Item number.
# 5. Element number.
# 6. Type.
# 7. Group.
# 8. Field name.
# 9. Field value.
1567188923,38a506d36cbb9f5a85f756fc065ba84e,Form,3,0,consent,NULL,,yes
1567188923,38a506d36cbb9f5a85f756fc065ba84e,Form,3,0,consent,NULL,_REACTION_TIME_,9638
1567188923,38a506d36cbb9f5a85f756fc065ba84e,Form,4,0,instructions,NULL,_REACTION_TIME_,6586
1567188923,38a506d36cbb9f5a85f756fc065ba84e,Form,5,0,story,15,_REACTION_TIME_,16298
# Columns below this comment are as follows:
# 1. Time results were received.
# 2. MD5 hash of participant's IP address.
# 3. Controller name.
# 4. Item number.
# 5. Element number.
# 6. Type.
# 7. Group.
# 8. Question (NULL if none).
# 9. Answer.
# 10. Whether or not answer was correct (NULL if N/A).
# 11. Time taken to answer.
1567188923,38a506d36cbb9f5a85f756fc065ba84e,Question,5,1,story,15,According to Mary%2C what's in the box?,a bomb,1,3868
1567188923,38a506d36cbb9f5a85f756fc065ba84e,Question,5,2,story,15,What was really in the box?,a pillow,0,1999
1567188923,38a506d36cbb9f5a85f756fc065ba84e,Question,5,3,story,15,Was Mary right about that?,no,1,1946
1567188923,38a506d36cbb9f5a85f756fc065ba84e,Question,6,0,politics,NULL,How worried are you about bombs being sent to government officials?,not at all worried,NULL,3693
1567188923,38a506d36cbb9f5a85f756fc065ba84e,Question,7,0,politics,NULL,How worried are you about taxpayer money being wasted?,a little worried,NULL,6487
# Columns below this comment are as follows:
# 1. Time results were received.
# 2. MD5 hash of participant's IP address.
# 3. Controller name.
# 4. Item number.
# 5. Element number.
# 6. Type.
# 7. Group.
# 8. Field name.
# 9. Field value.
1567188923,38a506d36cbb9f5a85f756fc065ba84e,Form,8,0,subj_info,NULL,year,1980
1567188923,38a506d36cbb9f5a85f756fc065ba84e,Form,8,0,subj_info,NULL,language,English
1567188923,38a506d36cbb9f5a85f756fc065ba84e,Form,8,0,subj_info,NULL,idturk,A3DB7QEJRUJCIO
1567188923,38a506d36cbb9f5a85f756fc065ba84e,Form,8,0,subj_info,NULL,comment,
1567188923,38a506d36cbb9f5a85f756fc065ba84e,Form,8,0,subj_info,NULL,sex,male
1567188923,38a506d36cbb9f5a85f756fc065ba84e,Form,8,0,subj_info,NULL,politics,other
1567188923,38a506d36cbb9f5a85f756fc065ba84e,Form,8,0,subj_info,NULL,_REACTION_TIME_,30350
#
# Results on Friday August 30 2019 18:16:15 UTC.
# USER AGENT: Mozilla/5.0 (Windows NT 10.0; Win64; x64) AppleWebKit/537.36 (KHTML, like Gecko) Chrome/76.0.3809.132 Safari/537.36
# Design number was non-random = 27
#
# Columns below this comment are as follows:
# 1. Time results were received.
# 2. MD5 hash of participant's IP address.
# 3. Controller name.
# 4. Item number.
# 5. Element number.
# 6. Type.
# 7. Group.
# 8. Field name.
# 9. Field value.
1567188975,aa1269a1050e87abfa548a4e53b6ee25,Form,3,0,consent,NULL,,yes
1567188975,aa1269a1050e87abfa548a4e53b6ee25,Form,3,0,consent,NULL,_REACTION_TIME_,6723
1567188975,aa1269a1050e87abfa548a4e53b6ee25,Form,4,0,instructions,NULL,_REACTION_TIME_,4517
1567188975,aa1269a1050e87abfa548a4e53b6ee25,Form,5,0,story,15,_REACTION_TIME_,16433
# Columns below this comment are as follows:
# 1. Time results were received.
# 2. MD5 hash of participant's IP address.
# 3. Controller name.
# 4. Item number.
# 5. Element number.
# 6. Type.
# 7. Group.
# 8. Question (NULL if none).
# 9. Answer.
# 10. Whether or not answer was correct (NULL if N/A).
# 11. Time taken to answer.
1567188975,aa1269a1050e87abfa548a4e53b6ee25,Question,5,1,story,15,According to Mary%2C what's in the box?,a bomb,1,4519
1567188975,aa1269a1050e87abfa548a4e53b6ee25,Question,5,2,story,15,What was really in the box?,a pillow,0,2036
1567188975,aa1269a1050e87abfa548a4e53b6ee25,Question,5,3,story,15,Was Mary right about that?,no,1,2295
1567188975,aa1269a1050e87abfa548a4e53b6ee25,Question,7,0,politics,NULL,How worried are you about taxpayer money being wasted?,a little worried,NULL,4909
1567188975,aa1269a1050e87abfa548a4e53b6ee25,Question,6,0,politics,NULL,How worried are you about bombs being sent to government officials?,not at all worried,NULL,3697
# Columns below this comment are as follows:
# 1. Time results were received.
# 2. MD5 hash of participant's IP address.
# 3. Controller name.
# 4. Item number.
# 5. Element number.
# 6. Type.
# 7. Group.
# 8. Field name.
# 9. Field value.
1567188975,aa1269a1050e87abfa548a4e53b6ee25,Form,8,0,subj_info,NULL,year,1989
1567188975,aa1269a1050e87abfa548a4e53b6ee25,Form,8,0,subj_info,NULL,language,english
1567188975,aa1269a1050e87abfa548a4e53b6ee25,Form,8,0,subj_info,NULL,idturk,APDZ10TRIR1Q9
1567188975,aa1269a1050e87abfa548a4e53b6ee25,Form,8,0,subj_info,NULL,comment,
1567188975,aa1269a1050e87abfa548a4e53b6ee25,Form,8,0,subj_info,NULL,sex,male
1567188975,aa1269a1050e87abfa548a4e53b6ee25,Form,8,0,subj_info,NULL,politics,democrat
1567188975,aa1269a1050e87abfa548a4e53b6ee25,Form,8,0,subj_info,NULL,_REACTION_TIME_,25202
#
# Results on Friday August 30 2019 18:18:36 UTC.
# USER AGENT: Mozilla/5.0 (Windows NT 6.1; WOW64; Trident/7.0; rv:11.0) like Gecko
# Design number was non-random = 29
#
# Columns below this comment are as follows:
# 1. Time results were received.
# 2. MD5 hash of participant's IP address.
# 3. Controller name.
# 4. Item number.
# 5. Element number.
# 6. Type.
# 7. Group.
# 8. Field name.
# 9. Field value.
1567189117,36a6286856a1b1fe9cd71207a04bcc02,Form,3,0,consent,NULL,,yes
1567189117,36a6286856a1b1fe9cd71207a04bcc02,Form,3,0,consent,NULL,_REACTION_TIME_,13022
1567189117,36a6286856a1b1fe9cd71207a04bcc02,Form,4,0,instructions,NULL,_REACTION_TIME_,3509
1567189117,36a6286856a1b1fe9cd71207a04bcc02,Form,5,0,story,15,_REACTION_TIME_,21931
# Columns below this comment are as follows:
# 1. Time results were received.
# 2. MD5 hash of participant's IP address.
# 3. Controller name.
# 4. Item number.
# 5. Element number.
# 6. Type.
# 7. Group.
# 8. Question (NULL if none).
# 9. Answer.
# 10. Whether or not answer was correct (NULL if N/A).
# 11. Time taken to answer.
1567189117,36a6286856a1b1fe9cd71207a04bcc02,Question,5,1,story,15,According to Mary%2C what's in the box?,a bomb,1,4753
1567189117,36a6286856a1b1fe9cd71207a04bcc02,Question,5,2,story,15,What was really in the box?,a pillow,0,2351
1567189117,36a6286856a1b1fe9cd71207a04bcc02,Question,5,3,story,15,Was Mary right about that?,no,1,2195
1567189117,36a6286856a1b1fe9cd71207a04bcc02,Question,6,0,politics,NULL,How worried are you about bombs being sent to government officials?,a little worried,NULL,3386
1567189117,36a6286856a1b1fe9cd71207a04bcc02,Question,7,0,politics,NULL,How worried are you about taxpayer money being wasted?,a little worried,NULL,3090
# Columns below this comment are as follows:
# 1. Time results were received.
# 2. MD5 hash of participant's IP address.
# 3. Controller name.
# 4. Item number.
# 5. Element number.
# 6. Type.
# 7. Group.
# 8. Field name.
# 9. Field value.
1567189117,36a6286856a1b1fe9cd71207a04bcc02,Form,8,0,subj_info,NULL,year,1984
1567189117,36a6286856a1b1fe9cd71207a04bcc02,Form,8,0,subj_info,NULL,language,English
1567189117,36a6286856a1b1fe9cd71207a04bcc02,Form,8,0,subj_info,NULL,idturk,A2JBOKVUJBGQX
1567189117,36a6286856a1b1fe9cd71207a04bcc02,Form,8,0,subj_info,NULL,comment,
1567189117,36a6286856a1b1fe9cd71207a04bcc02,Form,8,0,subj_info,NULL,sex,female
1567189117,36a6286856a1b1fe9cd71207a04bcc02,Form,8,0,subj_info,NULL,politics,other
1567189117,36a6286856a1b1fe9cd71207a04bcc02,Form,8,0,subj_info,NULL,_REACTION_TIME_,37082
#
# Results on Friday August 30 2019 18:19:38 UTC.
# USER AGENT: Mozilla/5.0 (Macintosh; Intel Mac OS X 10_14_5) AppleWebKit/537.36 (KHTML, like Gecko) Chrome/76.0.3809.132 Safari/537.36
# Design number was non-random = 28
#
# Columns below this comment are as follows:
# 1. Time results were received.
# 2. MD5 hash of participant's IP address.
# 3. Controller name.
# 4. Item number.
# 5. Element number.
# 6. Type.
# 7. Group.
# 8. Field name.
# 9. Field value.
1567189179,b891688f7a7c6ed3dd1883e7b70cbb5d,Form,3,0,consent,NULL,,yes
1567189179,b891688f7a7c6ed3dd1883e7b70cbb5d,Form,3,0,consent,NULL,_REACTION_TIME_,94578
1567189179,b891688f7a7c6ed3dd1883e7b70cbb5d,Form,4,0,instructions,NULL,_REACTION_TIME_,3818
1567189179,b891688f7a7c6ed3dd1883e7b70cbb5d,Form,5,0,story,15,_REACTION_TIME_,27214
# Columns below this comment are as follows:
# 1. Time results were received.
# 2. MD5 hash of participant's IP address.
# 3. Controller name.
# 4. Item number.
# 5. Element number.
# 6. Type.
# 7. Group.
# 8. Question (NULL if none).
# 9. Answer.
# 10. Whether or not answer was correct (NULL if N/A).
# 11. Time taken to answer.
1567189179,b891688f7a7c6ed3dd1883e7b70cbb5d,Question,5,1,story,15,According to Mary%2C what's in the box?,a bomb,1,3557
1567189179,b891688f7a7c6ed3dd1883e7b70cbb5d,Question,5,2,story,15,What was really in the box?,a bomb,1,1900
1567189179,b891688f7a7c6ed3dd1883e7b70cbb5d,Question,5,3,story,15,Was Mary right about that?,no,1,7236
1567189179,b891688f7a7c6ed3dd1883e7b70cbb5d,Question,7,0,politics,NULL,How worried are you about taxpayer money being wasted?,a little worried,NULL,5856
1567189179,b891688f7a7c6ed3dd1883e7b70cbb5d,Question,6,0,politics,NULL,How worried are you about bombs being sent to government officials?,very worried,NULL,4820
# Columns below this comment are as follows:
# 1. Time results were received.
# 2. MD5 hash of participant's IP address.
# 3. Controller name.
# 4. Item number.
# 5. Element number.
# 6. Type.
# 7. Group.
# 8. Field name.
# 9. Field value.
1567189179,b891688f7a7c6ed3dd1883e7b70cbb5d,Form,8,0,subj_info,NULL,year,1955
1567189179,b891688f7a7c6ed3dd1883e7b70cbb5d,Form,8,0,subj_info,NULL,language,English
1567189179,b891688f7a7c6ed3dd1883e7b70cbb5d,Form,8,0,subj_info,NULL,idturk,A1I7H6RDJS4EKN
1567189179,b891688f7a7c6ed3dd1883e7b70cbb5d,Form,8,0,subj_info,NULL,comment,
1567189179,b891688f7a7c6ed3dd1883e7b70cbb5d,Form,8,0,subj_info,NULL,sex,male
1567189179,b891688f7a7c6ed3dd1883e7b70cbb5d,Form,8,0,subj_info,NULL,politics,democrat
1567189179,b891688f7a7c6ed3dd1883e7b70cbb5d,Form,8,0,subj_info,NULL,_REACTION_TIME_,64544
#
# Results on Friday August 30 2019 18:20:00 UTC.
# USER AGENT: Mozilla/5.0 (Windows NT 10.0; Win64; x64; rv:68.0) Gecko/20100101 Firefox/68.0
# Design number was non-random = 29
#
# Columns below this comment are as follows:
# 1. Time results were received.
# 2. MD5 hash of participant's IP address.
# 3. Controller name.
# 4. Item number.
# 5. Element number.
# 6. Type.
# 7. Group.
# 8. Field name.
# 9. Field value.
1567189201,ab3bcc12b0e7efd5f08858961bb74320,Form,3,0,consent,NULL,,yes
1567189201,ab3bcc12b0e7efd5f08858961bb74320,Form,3,0,consent,NULL,_REACTION_TIME_,18805
1567189201,ab3bcc12b0e7efd5f08858961bb74320,Form,4,0,instructions,NULL,_REACTION_TIME_,3109
1567189201,ab3bcc12b0e7efd5f08858961bb74320,Form,5,0,story,15,_REACTION_TIME_,72393
# Columns below this comment are as follows:
# 1. Time results were received.
# 2. MD5 hash of participant's IP address.
# 3. Controller name.
# 4. Item number.
# 5. Element number.
# 6. Type.
# 7. Group.
# 8. Question (NULL if none).
# 9. Answer.
# 10. Whether or not answer was correct (NULL if N/A).
# 11. Time taken to answer.
1567189201,ab3bcc12b0e7efd5f08858961bb74320,Question,5,1,story,15,According to Mary%2C what's in the box?,a bomb,1,4172
1567189201,ab3bcc12b0e7efd5f08858961bb74320,Question,5,2,story,15,What was really in the box?,a pillow,0,1871
1567189201,ab3bcc12b0e7efd5f08858961bb74320,Question,5,3,story,15,Was Mary right about that?,no,1,2211
1567189201,ab3bcc12b0e7efd5f08858961bb74320,Question,7,0,politics,NULL,How worried are you about taxpayer money being wasted?,a little worried,NULL,3836
1567189201,ab3bcc12b0e7efd5f08858961bb74320,Question,6,0,politics,NULL,How worried are you about bombs being sent to government officials?,a little worried,NULL,3489
# Columns below this comment are as follows:
# 1. Time results were received.
# 2. MD5 hash of participant's IP address.
# 3. Controller name.
# 4. Item number.
# 5. Element number.
# 6. Type.
# 7. Group.
# 8. Field name.
# 9. Field value.
1567189201,ab3bcc12b0e7efd5f08858961bb74320,Form,8,0,subj_info,NULL,year,1972
1567189201,ab3bcc12b0e7efd5f08858961bb74320,Form,8,0,subj_info,NULL,language,English
1567189201,ab3bcc12b0e7efd5f08858961bb74320,Form,8,0,subj_info,NULL,idturk,A1U7O93JY3WFMU
1567189201,ab3bcc12b0e7efd5f08858961bb74320,Form,8,0,subj_info,NULL,comment,
1567189201,ab3bcc12b0e7efd5f08858961bb74320,Form,8,0,subj_info,NULL,sex,female
1567189201,ab3bcc12b0e7efd5f08858961bb74320,Form,8,0,subj_info,NULL,politics,republican
1567189201,ab3bcc12b0e7efd5f08858961bb74320,Form,8,0,subj_info,NULL,_REACTION_TIME_,16869
#
# Results on Friday August 30 2019 18:20:24 UTC.
# USER AGENT: Mozilla/5.0 (Windows NT 10.0; Win64; x64) AppleWebKit/537.36 (KHTML, like Gecko) Chrome/76.0.3809.100 Safari/537.36
# Design number was non-random = 31
#
# Columns below this comment are as follows:
# 1. Time results were received.
# 2. MD5 hash of participant's IP address.
# 3. Controller name.
# 4. Item number.
# 5. Element number.
# 6. Type.
# 7. Group.
# 8. Field name.
# 9. Field value.
1567189224,0eee97a20127205b967bf9bf3246344b,Form,3,0,consent,NULL,,yes
1567189224,0eee97a20127205b967bf9bf3246344b,Form,3,0,consent,NULL,_REACTION_TIME_,2282
1567189224,0eee97a20127205b967bf9bf3246344b,Form,4,0,instructions,NULL,_REACTION_TIME_,1237
1567189224,0eee97a20127205b967bf9bf3246344b,Form,5,0,story,15,_REACTION_TIME_,12241
# Columns below this comment are as follows:
# 1. Time results were received.
# 2. MD5 hash of participant's IP address.
# 3. Controller name.
# 4. Item number.
# 5. Element number.
# 6. Type.
# 7. Group.
# 8. Question (NULL if none).
# 9. Answer.
# 10. Whether or not answer was correct (NULL if N/A).
# 11. Time taken to answer.
1567189224,0eee97a20127205b967bf9bf3246344b,Question,5,1,story,15,According to Mary%2C what's in the box?,a bomb,1,4088
1567189224,0eee97a20127205b967bf9bf3246344b,Question,5,2,story,15,What was really in the box?,a pillow,0,1287
1567189224,0eee97a20127205b967bf9bf3246344b,Question,5,3,story,15,Was Mary right about that?,no,1,1538
1567189224,0eee97a20127205b967bf9bf3246344b,Question,6,0,politics,NULL,How worried are you about bombs being sent to government officials?,not at all worried,NULL,1774
1567189224,0eee97a20127205b967bf9bf3246344b,Question,7,0,politics,NULL,How worried are you about taxpayer money being wasted?,very worried,NULL,1932
# Columns below this comment are as follows:
# 1. Time results were received.
# 2. MD5 hash of participant's IP address.
# 3. Controller name.
# 4. Item number.
# 5. Element number.
# 6. Type.
# 7. Group.
# 8. Field name.
# 9. Field value.
1567189224,0eee97a20127205b967bf9bf3246344b,Form,8,0,subj_info,NULL,year,1986
1567189224,0eee97a20127205b967bf9bf3246344b,Form,8,0,subj_info,NULL,language,English
1567189224,0eee97a20127205b967bf9bf3246344b,Form,8,0,subj_info,NULL,idturk,A3Q9UIPBY9QWLA
1567189224,0eee97a20127205b967bf9bf3246344b,Form,8,0,subj_info,NULL,comment,
1567189224,0eee97a20127205b967bf9bf3246344b,Form,8,0,subj_info,NULL,sex,male
1567189224,0eee97a20127205b967bf9bf3246344b,Form,8,0,subj_info,NULL,politics,republican
1567189224,0eee97a20127205b967bf9bf3246344b,Form,8,0,subj_info,NULL,_REACTION_TIME_,16139
#
# Results on Friday August 30 2019 18:21:19 UTC.
# USER AGENT: Mozilla/5.0 (Windows NT 10.0; Win64; x64) AppleWebKit/537.36 (KHTML, like Gecko) Chrome/64.0.3282.140 Safari/537.36 Edge/18.17763
# Design number was non-random = 30
#
# Columns below this comment are as follows:
# 1. Time results were received.
# 2. MD5 hash of participant's IP address.
# 3. Controller name.
# 4. Item number.
# 5. Element number.
# 6. Type.
# 7. Group.
# 8. Field name.
# 9. Field value.
1567189279,ae4b58a31c624a67a3afb07921f33c27,Form,3,0,consent,NULL,,yes
1567189279,ae4b58a31c624a67a3afb07921f33c27,Form,3,0,consent,NULL,_REACTION_TIME_,17766
1567189279,ae4b58a31c624a67a3afb07921f33c27,Form,4,0,instructions,NULL,_REACTION_TIME_,3612
1567189279,ae4b58a31c624a67a3afb07921f33c27,Form,5,0,story,15,_REACTION_TIME_,32859
# Columns below this comment are as follows:
# 1. Time results were received.
# 2. MD5 hash of participant's IP address.
# 3. Controller name.
# 4. Item number.
# 5. Element number.
# 6. Type.
# 7. Group.
# 8. Question (NULL if none).
# 9. Answer.
# 10. Whether or not answer was correct (NULL if N/A).
# 11. Time taken to answer.
1567189279,ae4b58a31c624a67a3afb07921f33c27,Question,5,1,story,15,According to Mary%2C what's in the box?,a bomb,1,7832
1567189279,ae4b58a31c624a67a3afb07921f33c27,Question,5,2,story,15,What was really in the box?,a pillow,0,5057
1567189279,ae4b58a31c624a67a3afb07921f33c27,Question,5,3,story,15,Was Mary right about that?,no,1,5221
1567189279,ae4b58a31c624a67a3afb07921f33c27,Question,7,0,politics,NULL,How worried are you about taxpayer money being wasted?,not at all worried,NULL,7761
1567189279,ae4b58a31c624a67a3afb07921f33c27,Question,6,0,politics,NULL,How worried are you about bombs being sent to government officials?,a little worried,NULL,10330
# Columns below this comment are as follows:
# 1. Time results were received.
# 2. MD5 hash of participant's IP address.
# 3. Controller name.
# 4. Item number.
# 5. Element number.
# 6. Type.
# 7. Group.
# 8. Field name.
# 9. Field value.
1567189279,ae4b58a31c624a67a3afb07921f33c27,Form,8,0,subj_info,NULL,year,1942
1567189279,ae4b58a31c624a67a3afb07921f33c27,Form,8,0,subj_info,NULL,language,aenglish
1567189279,ae4b58a31c624a67a3afb07921f33c27,Form,8,0,subj_info,NULL,idturk,A2TNIHT3WDQHF6
1567189279,ae4b58a31c624a67a3afb07921f33c27,Form,8,0,subj_info,NULL,comment,Interesting study.  More%2C please!
1567189279,ae4b58a31c624a67a3afb07921f33c27,Form,8,0,subj_info,NULL,sex,male
1567189279,ae4b58a31c624a67a3afb07921f33c27,Form,8,0,subj_info,NULL,politics,republican
1567189279,ae4b58a31c624a67a3afb07921f33c27,Form,8,0,subj_info,NULL,_REACTION_TIME_,59576
#
# Results on Friday August 30 2019 18:23:13 UTC.
# USER AGENT: Mozilla/5.0 (Windows NT 10.0; Win64; x64) AppleWebKit/537.36 (KHTML, like Gecko) Chrome/70.0.3538.102 Safari/537.36 Edge/18.18362
# Design number was non-random = 34
#
# Columns below this comment are as follows:
# 1. Time results were received.
# 2. MD5 hash of participant's IP address.
# 3. Controller name.
# 4. Item number.
# 5. Element number.
# 6. Type.
# 7. Group.
# 8. Field name.
# 9. Field value.
1567189393,9bcda2e9c3b8e0bdfea486377c30efba,Form,3,0,consent,NULL,,yes
1567189393,9bcda2e9c3b8e0bdfea486377c30efba,Form,3,0,consent,NULL,_REACTION_TIME_,18400
1567189393,9bcda2e9c3b8e0bdfea486377c30efba,Form,4,0,instructions,NULL,_REACTION_TIME_,3650
1567189393,9bcda2e9c3b8e0bdfea486377c30efba,Form,5,0,story,15,_REACTION_TIME_,18636
# Columns below this comment are as follows:
# 1. Time results were received.
# 2. MD5 hash of participant's IP address.
# 3. Controller name.
# 4. Item number.
# 5. Element number.
# 6. Type.
# 7. Group.
# 8. Question (NULL if none).
# 9. Answer.
# 10. Whether or not answer was correct (NULL if N/A).
# 11. Time taken to answer.
1567189393,9bcda2e9c3b8e0bdfea486377c30efba,Question,5,1,story,15,According to Mary%2C what's in the box?,a bomb,1,2974
1567189393,9bcda2e9c3b8e0bdfea486377c30efba,Question,5,2,story,15,What was really in the box?,a pillow,0,1754
1567189393,9bcda2e9c3b8e0bdfea486377c30efba,Question,5,3,story,15,Was Mary right about that?,no,1,3358
1567189393,9bcda2e9c3b8e0bdfea486377c30efba,Question,6,0,politics,NULL,How worried are you about bombs being sent to government officials?,a little worried,NULL,4620
1567189393,9bcda2e9c3b8e0bdfea486377c30efba,Question,7,0,politics,NULL,How worried are you about taxpayer money being wasted?,very worried,NULL,3212
# Columns below this comment are as follows:
# 1. Time results were received.
# 2. MD5 hash of participant's IP address.
# 3. Controller name.
# 4. Item number.
# 5. Element number.
# 6. Type.
# 7. Group.
# 8. Field name.
# 9. Field value.
1567189393,9bcda2e9c3b8e0bdfea486377c30efba,Form,8,0,subj_info,NULL,year,1980
1567189393,9bcda2e9c3b8e0bdfea486377c30efba,Form,8,0,subj_info,NULL,language,English
1567189393,9bcda2e9c3b8e0bdfea486377c30efba,Form,8,0,subj_info,NULL,idturk,A362SCWOVN58QV
1567189393,9bcda2e9c3b8e0bdfea486377c30efba,Form,8,0,subj_info,NULL,comment,
1567189393,9bcda2e9c3b8e0bdfea486377c30efba,Form,8,0,subj_info,NULL,sex,female
1567189393,9bcda2e9c3b8e0bdfea486377c30efba,Form,8,0,subj_info,NULL,politics,democrat
1567189393,9bcda2e9c3b8e0bdfea486377c30efba,Form,8,0,subj_info,NULL,_REACTION_TIME_,22206
#
# Results on Friday August 30 2019 18:24:18 UTC.
# USER AGENT: Mozilla/5.0 (Macintosh; Intel Mac OS X 10_10_5) AppleWebKit/537.36 (KHTML, like Gecko) Chrome/76.0.3809.132 Safari/537.36
# Design number was non-random = 34
#
# Columns below this comment are as follows:
# 1. Time results were received.
# 2. MD5 hash of participant's IP address.
# 3. Controller name.
# 4. Item number.
# 5. Element number.
# 6. Type.
# 7. Group.
# 8. Field name.
# 9. Field value.
1567189458,71152a58ca9576d3e82a69f11ed90d1d,Form,3,0,consent,NULL,,yes
1567189458,71152a58ca9576d3e82a69f11ed90d1d,Form,3,0,consent,NULL,_REACTION_TIME_,113382
1567189458,71152a58ca9576d3e82a69f11ed90d1d,Form,4,0,instructions,NULL,_REACTION_TIME_,3627
1567189458,71152a58ca9576d3e82a69f11ed90d1d,Form,5,0,story,15,_REACTION_TIME_,20272
# Columns below this comment are as follows:
# 1. Time results were received.
# 2. MD5 hash of participant's IP address.
# 3. Controller name.
# 4. Item number.
# 5. Element number.
# 6. Type.
# 7. Group.
# 8. Question (NULL if none).
# 9. Answer.
# 10. Whether or not answer was correct (NULL if N/A).
# 11. Time taken to answer.
1567189458,71152a58ca9576d3e82a69f11ed90d1d,Question,5,1,story,15,According to Mary%2C what's in the box?,a bomb,1,2920
1567189458,71152a58ca9576d3e82a69f11ed90d1d,Question,5,2,story,15,What was really in the box?,a pillow,0,1368
1567189458,71152a58ca9576d3e82a69f11ed90d1d,Question,5,3,story,15,Was Mary right about that?,no,1,4372
1567189458,71152a58ca9576d3e82a69f11ed90d1d,Question,7,0,politics,NULL,How worried are you about taxpayer money being wasted?,not at all worried,NULL,6262
1567189458,71152a58ca9576d3e82a69f11ed90d1d,Question,6,0,politics,NULL,How worried are you about bombs being sent to government officials?,very worried,NULL,3163
# Columns below this comment are as follows:
# 1. Time results were received.
# 2. MD5 hash of participant's IP address.
# 3. Controller name.
# 4. Item number.
# 5. Element number.
# 6. Type.
# 7. Group.
# 8. Field name.
# 9. Field value.
1567189458,71152a58ca9576d3e82a69f11ed90d1d,Form,8,0,subj_info,NULL,year,1995
1567189458,71152a58ca9576d3e82a69f11ed90d1d,Form,8,0,subj_info,NULL,language,English
1567189458,71152a58ca9576d3e82a69f11ed90d1d,Form,8,0,subj_info,NULL,idturk,A17KPSO9AXOIIE
1567189458,71152a58ca9576d3e82a69f11ed90d1d,Form,8,0,subj_info,NULL,comment,
1567189458,71152a58ca9576d3e82a69f11ed90d1d,Form,8,0,subj_info,NULL,sex,female
1567189458,71152a58ca9576d3e82a69f11ed90d1d,Form,8,0,subj_info,NULL,politics,other
1567189458,71152a58ca9576d3e82a69f11ed90d1d,Form,8,0,subj_info,NULL,_REACTION_TIME_,21869
#
# Results on Friday August 30 2019 18:24:47 UTC.
# USER AGENT: Mozilla/5.0 (Macintosh; Intel Mac OS X 10_14_6) AppleWebKit/537.36 (KHTML, like Gecko) Chrome/76.0.3809.100 Safari/537.36
# Design number was non-random = 34
#
# Columns below this comment are as follows:
# 1. Time results were received.
# 2. MD5 hash of participant's IP address.
# 3. Controller name.
# 4. Item number.
# 5. Element number.
# 6. Type.
# 7. Group.
# 8. Field name.
# 9. Field value.
1567189488,d9ba0637b7517389781569df64d342e7,Form,3,0,consent,NULL,,yes
1567189488,d9ba0637b7517389781569df64d342e7,Form,3,0,consent,NULL,_REACTION_TIME_,17221
1567189488,d9ba0637b7517389781569df64d342e7,Form,4,0,instructions,NULL,_REACTION_TIME_,3874
1567189488,d9ba0637b7517389781569df64d342e7,Form,5,0,story,15,_REACTION_TIME_,36680
# Columns below this comment are as follows:
# 1. Time results were received.
# 2. MD5 hash of participant's IP address.
# 3. Controller name.
# 4. Item number.
# 5. Element number.
# 6. Type.
# 7. Group.
# 8. Question (NULL if none).
# 9. Answer.
# 10. Whether or not answer was correct (NULL if N/A).
# 11. Time taken to answer.
1567189488,d9ba0637b7517389781569df64d342e7,Question,5,1,story,15,According to Mary%2C what's in the box?,a bomb,1,3005
1567189488,d9ba0637b7517389781569df64d342e7,Question,5,2,story,15,What was really in the box?,a pillow,0,1902
1567189488,d9ba0637b7517389781569df64d342e7,Question,5,3,story,15,Was Mary right about that?,no,1,3103
1567189488,d9ba0637b7517389781569df64d342e7,Question,6,0,politics,NULL,How worried are you about bombs being sent to government officials?,not at all worried,NULL,5039
1567189488,d9ba0637b7517389781569df64d342e7,Question,7,0,politics,NULL,How worried are you about taxpayer money being wasted?,very worried,NULL,3583
# Columns below this comment are as follows:
# 1. Time results were received.
# 2. MD5 hash of participant's IP address.
# 3. Controller name.
# 4. Item number.
# 5. Element number.
# 6. Type.
# 7. Group.
# 8. Field name.
# 9. Field value.
1567189488,d9ba0637b7517389781569df64d342e7,Form,8,0,subj_info,NULL,year,1977
1567189488,d9ba0637b7517389781569df64d342e7,Form,8,0,subj_info,NULL,language,English
1567189488,d9ba0637b7517389781569df64d342e7,Form,8,0,subj_info,NULL,idturk,A2K6QV9HRJ4V7B
1567189488,d9ba0637b7517389781569df64d342e7,Form,8,0,subj_info,NULL,comment,NA
1567189488,d9ba0637b7517389781569df64d342e7,Form,8,0,subj_info,NULL,sex,female
1567189488,d9ba0637b7517389781569df64d342e7,Form,8,0,subj_info,NULL,politics,republican
1567189488,d9ba0637b7517389781569df64d342e7,Form,8,0,subj_info,NULL,_REACTION_TIME_,39968
#
# Results on Friday August 30 2019 18:25:23 UTC.
# USER AGENT: Mozilla/5.0 (Windows NT 6.3; Win64; x64) AppleWebKit/537.36 (KHTML, like Gecko) Chrome/76.0.3809.132 Safari/537.36
# Design number was non-random = 35
#
# Columns below this comment are as follows:
# 1. Time results were received.
# 2. MD5 hash of participant's IP address.
# 3. Controller name.
# 4. Item number.
# 5. Element number.
# 6. Type.
# 7. Group.
# 8. Field name.
# 9. Field value.
1567189524,349719954ffded98562cfcc7a0987849,Form,3,0,consent,NULL,,yes
1567189524,349719954ffded98562cfcc7a0987849,Form,3,0,consent,NULL,_REACTION_TIME_,29743
1567189524,349719954ffded98562cfcc7a0987849,Form,4,0,instructions,NULL,_REACTION_TIME_,3560
1567189524,349719954ffded98562cfcc7a0987849,Form,5,0,story,15,_REACTION_TIME_,21362
# Columns below this comment are as follows:
# 1. Time results were received.
# 2. MD5 hash of participant's IP address.
# 3. Controller name.
# 4. Item number.
# 5. Element number.
# 6. Type.
# 7. Group.
# 8. Question (NULL if none).
# 9. Answer.
# 10. Whether or not answer was correct (NULL if N/A).
# 11. Time taken to answer.
1567189524,349719954ffded98562cfcc7a0987849,Question,5,1,story,15,According to Mary%2C what's in the box?,a bomb,1,5092
1567189524,349719954ffded98562cfcc7a0987849,Question,5,2,story,15,What was really in the box?,a pillow,0,1859
1567189524,349719954ffded98562cfcc7a0987849,Question,5,3,story,15,Was Mary right about that?,no,1,5032
1567189524,349719954ffded98562cfcc7a0987849,Question,7,0,politics,NULL,How worried are you about taxpayer money being wasted?,not at all worried,NULL,4807
1567189524,349719954ffded98562cfcc7a0987849,Question,6,0,politics,NULL,How worried are you about bombs being sent to government officials?,very worried,NULL,10073
# Columns below this comment are as follows:
# 1. Time results were received.
# 2. MD5 hash of participant's IP address.
# 3. Controller name.
# 4. Item number.
# 5. Element number.
# 6. Type.
# 7. Group.
# 8. Field name.
# 9. Field value.
1567189524,349719954ffded98562cfcc7a0987849,Form,8,0,subj_info,NULL,year,1984
1567189524,349719954ffded98562cfcc7a0987849,Form,8,0,subj_info,NULL,language,English
1567189524,349719954ffded98562cfcc7a0987849,Form,8,0,subj_info,NULL,idturk,A3OPVPUE0VDUB0
1567189524,349719954ffded98562cfcc7a0987849,Form,8,0,subj_info,NULL,comment,
1567189524,349719954ffded98562cfcc7a0987849,Form,8,0,subj_info,NULL,sex,male
1567189524,349719954ffded98562cfcc7a0987849,Form,8,0,subj_info,NULL,politics,republican
1567189524,349719954ffded98562cfcc7a0987849,Form,8,0,subj_info,NULL,_REACTION_TIME_,23036
#
# Results on Friday August 30 2019 18:27:02 UTC.
# USER AGENT: Mozilla/5.0 (Windows NT 6.3; Win64; x64) AppleWebKit/537.36 (KHTML, like Gecko) Chrome/76.0.3809.100 Safari/537.36
# Design number was non-random = 38
#
# Columns below this comment are as follows:
# 1. Time results were received.
# 2. MD5 hash of participant's IP address.
# 3. Controller name.
# 4. Item number.
# 5. Element number.
# 6. Type.
# 7. Group.
# 8. Field name.
# 9. Field value.
1567189623,5863e69918487e49f3440fecd58ab70b,Form,3,0,consent,NULL,,yes
1567189623,5863e69918487e49f3440fecd58ab70b,Form,3,0,consent,NULL,_REACTION_TIME_,5511
1567189623,5863e69918487e49f3440fecd58ab70b,Form,4,0,instructions,NULL,_REACTION_TIME_,2319
1567189623,5863e69918487e49f3440fecd58ab70b,Form,5,0,story,15,_REACTION_TIME_,31442
# Columns below this comment are as follows:
# 1. Time results were received.
# 2. MD5 hash of participant's IP address.
# 3. Controller name.
# 4. Item number.
# 5. Element number.
# 6. Type.
# 7. Group.
# 8. Question (NULL if none).
# 9. Answer.
# 10. Whether or not answer was correct (NULL if N/A).
# 11. Time taken to answer.
1567189623,5863e69918487e49f3440fecd58ab70b,Question,5,1,story,15,According to Mary%2C what's in the box?,a bomb,1,2725
